2,0,1000,1,GDOP, 1224460800.0
Time_ms,Pos_X,Pos_Y,Pos_Z,Vel_X,Vel_Y,Vel_Z,Acc_X,Acc_Y,Acc_Z,Jerk_X,Jerk_Y,Jerk_Z,Lat,Long,Height,Heading,Elevation,Bank,Ang-vel_X,Ang-vel_Y,Ang-vel_Z,Ang-acc_X,Ang-acc_Y,Ang-acc_Z,Ant1_Pos_X,Ant1_Pos_Y,Ant1_Pos_Z,Ant1_Vel_X,Ant1_Vel_Y,Ant1_Vel_Z,Ant1_Acc_X,Ant1_Acc_Y,Ant1_Acc_Z,Ant1_Lat,Ant1_Long,Ant1_Height,Ant1_DOP
0,4063553.7899,-255360.4539,4893080.1862,-4.9961,7.3990,4.5049,0.000,0.000,0.000,0.000,0.000,0.000,0.88008227532,-0.06275913044,50.0000,0.785398000,0.000000000,0.000000000,0.000000,-0.000002,-0.000001,0.0000,0.0000,0.0000,4063553.7899,-255360.4539,4893080.1862,-4.9961,7.3990,4.5049,0.000,0.000,0.000,0.88008227532,-0.06275913044,50.0000,2.124
1000,4063548.7938,-255353.0549,4893084.6911,-4.9961,7.3990,4.5049,0.000,0.000,0.000,0.000,0.000,0.000,0.88008338477,-0.06275739374,50.0000,0.785398000,0.000000000,0.000000000,0.000000,-0.000002,-0.000001,0.0000,0.0000,0.0000,4063548.7938,-255353.0549,4893084.6911,-4.9961,7.3990,4.5049,0.000,0.000,0.000,0.88008338477,-0.06275739374,50.0000,2.124
2000,4063543.7976,-255345.6559,4893089.1959,-4.9961,7.3990,4.5049,0.000,0.000,0.000,0.000,0.000,0.000,0.88008449422,-0.06275565705,50.0000,0.785398000,0.000000000,0.000000000,0.000000,-0.000002,-0.000001,0.0000,0.0000,0.0000,4063543.7976,-255345.6559,4893089.1959,-4.9961,7.3990,4.5049,0.000,0.000,0.000,0.88008449422,-0.06275565705,50.0000,2.124
3000,4063538.8015,-255338.2570,4893093.7008,-4.9962,7.3990,4.5049,0.000,0.000,0.000,0.000,0.000,0.000,0.88008560368,-0.06275392035,50.0000,0.785398000,0.000000000,0.000000000,0.000000,-0.000002,-0.000001,0.0000,0.0000,0.0000,4063538.8015,-255338.2570,4893093.7008,-4.9962,7.3990,4.5049,0.000,0.000,0.000,0.88008560368,-0.06275392035,50.0000,2.124
4000,4063533.8053,-255330.8580,4893098.2057,-4.9962,7.3989,4.5049,0.000,0.000,0.000,0.000,0.000,0.000,0.88008671313,-0.06275218365,50.0000,0.785398000,0.000000000,0.000000000,0.000000,-0.000002,-0.000001,0.0000,0.0000,0.0000,4063533.8053,-255330.8580,4893098.2057,-4.9962,7.3989,4.5049,0.000,0.000,0.000,0.88008671313,-0.06275218365,50.0000,2.124
5000,4063528.8091,-255323.4591,4893102.7106,-4.9962,7.3989,4.5049,0.000,0.000,0.000,0.000,0.000,0.000,0.88008782258,-0.06275044694,50.0000,0.785398000,0.000000000,0.000000000,0.000000,-0.000002,-0.000001,0.0000,0.0000,0.0000,4063528.8091,-255323.4591,4893102.7106,-4.9962,7.3989,4.5049,0.000,0.000,0.000,0.88008782258,-0.06275044694,50.0000,2.124
6000,4063523.8129,-255316.0601,4893107.2154,-4.9962,7.3989,4.5049,0.000,0.000,0.000,0.000,0.000,0.000,0.88008893203,-0.06274871024,50.0000,0.785398000,0.000000000,0.000000000,0.000000,-0.000002,-0.000001,0.0000,0.0000,0.0000,4063523.8129,-255316.0601,4893107.2154,-4.9962,7.3989,4.5049,0.000,0.000,0.000,0.88008893203,-0.06274871024,50.0000,2.123
7000,4063518.8167,-255308.6612,4893111.7203,-4.9962,7.3989,4.5048,0.000,0.000,0.000,0.000,0.000,0.000,0.88009004149,-0.06274697353,50.0000,0.785398000,0.000000000,0.000000000,0.000000,-0.000002,-0.000001,0.0000,0.0000,0.0000,4063518.8167,-255308.6612,4893111.7203,-4.9962,7.3989,4.5048,0.000,0.000,0.000,0.88009004149,-0.06274697353,50.0000,2.123
8000,4063513.8205,-255301.2623,4893116.2251,-4.9962,7.3989,4.5048,0.000,0.000,0.000,0.000,0.000,0.000,0.88009115094,-0.06274523682,50.0000,0.785398000,0.000000000,0.000000000,0.000000,-0.000002,-0.000001,0.0000,0.0000,0.0000,4063513.8205,-255301.2623,4893116.2251,-4.9962,7.3989,4.5048,0.000,0.000,0.000,0.88009115094,-0.06274523682,50.0000,2.123
9000,4063508.8242,-255293.8634,4893120.7300,-4.9963,7.3989,4.5048,0.000,0.000,0.000,0.000,0.000,0.000,0.88009226039,-0.06274350011,50.0000,0.785398000,0.000000000,0.000000000,0.000000,-0.000002,-0.000001,0.0000,0.0000,0.0000,4063508.8242,-255293.8634,4893120.7300,-4.9963,7.3989,4.5048,0.000,0.000,0.000,0.88009226039,-0.06274350011,50.0000,2.123
10000,4063503.8279,-255286.4645,4893125.2348,-4.9963,7.3989,4.5048,0.000,0.000,0.000,0.000,0.000,0.000,0.88009336985,-0.06274176339,50.0000,0.785398000,0.000000000,0.000000000,0.000000,-0.000002,-0.000001,0.0000,0.0000,0.0000,4063503.8279,-255286.4645,4893125.2348,-4.9963,7.3989,4.5048,0.000,0.000,0.000,0.88009336985,-0.06274176339,50.0000,2.123
11000,4063498.8317,-255279.0656,4893129.7396,-4.9963,7.3989,4.5048,0.000,0.000,0.000,0.000,0.000,0.000,0.88009447930,-0.06274002667,50.0000,0.785398000,0.000000000,0.000000000,0.000000,-0.000002,-0.000001,0.0000,0.0000,0.0000,4063498.8317,-255279.0656,4893129.7396,-4.9963,7.3989,4.5048,0.000,0.000,0.000,0.88009447930,-0.06274002667,50.0000,2.123
12000,4063493.8353,-255271.6667,4893134.2444,-4.9963,7.3989,4.5048,0.000,0.000,0.000,0.000,0.000,0.000,0.88009558875,-0.06273828995,50.0000,0.785398000,0.000000000,0.000000000,0.000000,-0.000002,-0.000001,0.0000,0.0000,0.0000,4063493.8353,-255271.6667,4893134.2444,-4.9963,7.3989,4.5048,0.000,0.000,0.000,0.88009558875,-0.06273828995,50.0000,2.122
13000,4063488.8390,-255264.2679,4893138.7492,-4.9963,7.3989,4.5048,0.000,0.000,0.000,0.000,0.000,0.000,0.88009669820,-0.06273655323,50.0000,0.785398000,0.000000000,0.000000000,0.000000,-0.000002,-0.000001,0.0000,0.0000,0.0000,4063488.8390,-255264.2679,4893138.7492,-4.9963,7.3989,4.5048,0.000,0.000,0.000,0.88009669820,-0.06273655323,50.0000,2.122
14000,4063483.8427,-255256.8690,4893143.2541,-4.9964,7.3989,4.5048,0.000,0.000,0.000,0.000,0.000,0.000,0.88009780766,-0.06273481651,50.0000,0.785398000,0.000000000,0.000000000,0.000000,-0.000002,-0.000001,0.0000,0.0000,0.0000,4063483.8427,-255256.8690,4893143.2541,-4.9964,7.3989,4.5048,0.000,0.000,0.000,0.88009780766,-0.06273481651,50.0000,2.122
15000,4063478.8463,-255249.4701,4893147.7589,-4.9964,7.3989,4.5048,0.000,0.000,0.000,0.000,0.000,0.000,0.88009891711,-0.06273307978,50.0000,0.785398000,0.000000000,0.000000000,0.000000,-0.000002,-0.000001,0.0000,0.0000,0.0000,4063478.8463,-255249.4701,4893147.7589,-4.9964,7.3989,4.5048,0.000,0.000,0.000,0.88009891711,-0.06273307978,50.0000,2.122
16000,4063473.8499,-255242.0713,4893152.2637,-4.9964,7.3988,4.5048,0.000,0.000,0.000,0.000,0.000,0.000,0.88010002656,-0.06273134305,50.0000,0.785398000,0.000000000,0.000000000,0.000000,-0.000002,-0.000001,0.0000,0.0000,0.0000,4063473.8499,-255242.0713,4893152.2637,-4.9964,7.3988,4.5048,0.000,0.000,0.000,0.88010002656,-0.06273134305,50.0000,2.122
17000,4063468.8535,-255234.6724,4893156.7685,-4.9964,7.3988,4.5048,0.000,0.000,0.000,0.000,0.000,0.000,0.88010113601,-0.06272960632,50.0000,0.785398000,0.000000000,0.000000000,0.000000,-0.000002,-0.000001,0.0000,0.0000,0.0000,4063468.8535,-255234.6724,4893156.7685,-4.9964,7.3988,4.5048,0.000,0.000,0.000,0.88010113601,-0.06272960632,50.0000,2.122
18000,4063463.8571,-255227.2736,4893161.2732,-4.9964,7.3988,4.5048,0.000,0.000,0.000,0.000,0.000,0.000,0.88010224547,-0.06272786959,50.0000,0.785398000,0.000000000,0.000000000,0.000000,-0.000002,-0.000001,0.0000,0.0000,0.0000,4063463.8571,-255227.2736,4893161.2732,-4.9964,7.3988,4.5048,0.000,0.000,0.000,0.88010224547,-0.06272786959,50.0000,2.120
19000,4063458.8607,-255219.8748,4893165.7780,-4.9964,7.3988,4.5048,0.000,0.000,0.000,0.000,0.000,0.000,0.88010335492,-0.06272613285,50.0000,0.785398000,0.000000000,0.000000000,0.000000,-0.000002,-0.000001,0.0000,0.0000,0.0000,4063458.8607,-255219.8748,4893165.7780,-4.9964,7.3988,4.5048,0.000,0.000,0.000,0.88010335492,-0.06272613285,50.0000,2.120
20000,4063453.8642,-255212.4760,4893170.2828,-4.9965,7.3988,4.5048,0.000,0.000,0.000,0.000,0.000,0.000,0.88010446437,-0.06272439611,50.0000,0.785398000,0.000000000,0.000000000,0.000000,-0.000002,-0.000001,0.0000,0.0000,0.0000,4063453.8642,-255212.4760,4893170.2828,-4.9965,7.3988,4.5048,0.000,0.000,0.000,0.88010446437,-0.06272439611,50.0000,2.120
21000,4063448.8677,-255205.0772,4893174.7876,-4.9965,7.3988,4.5048,0.000,0.000,0.000,0.000,0.000,0.000,0.88010557382,-0.06272265937,50.0000,0.785398000,0.000000000,0.000000000,0.000000,-0.000002,-0.000001,0.0000,0.0000,0.0000,4063448.8677,-255205.0772,4893174.7876,-4.9965,7.3988,4.5048,0.000,0.000,0.000,0.88010557382,-0.06272265937,50.0000,2.120
22000,4063443.8713,-255197.6784,4893179.2923,-4.9965,7.3988,4.5048,0.000,0.000,0.000,0.000,0.000,0.000,0.88010668328,-0.06272092263,50.0000,0.785398000,0.000000000,0.000000000,0.000000,-0.000002,-0.000001,0.0000,0.0000,0.0000,4063443.8713,-255197.6784,4893179.2923,-4.9965,7.3988,4.5048,0.000,0.000,0.000,0.88010668328,-0.06272092263,50.0000,2.120
23000,4063438.8747,-255190.2796,4893183.7971,-4.9965,7.3988,4.5048,0.000,0.000,0.000,0.000,0.000,0.000,0.88010779273,-0.06271918588,50.0000,0.785398000,0.000000000,0.000000000,0.000000,-0.000002,-0.000001,0.0000,0.0000,0.0000,4063438.8747,-255190.2796,4893183.7971,-4.9965,7.3988,4.5048,0.000,0.000,0.000,0.88010779273,-0.06271918588,50.0000,2.120
24000,4063433.8782,-255182.8808,4893188.3018,-4.9965,7.3988,4.5047,0.000,0.000,0.000,0.000,0.000,0.000,0.88010890218,-0.06271744913,50.0000,0.785398000,0.000000000,0.000000000,0.000000,-0.000002,-0.000001,0.0000,0.0000,0.0000,4063433.8782,-255182.8808,4893188.3018,-4.9965,7.3988,4.5047,0.000,0.000,0.000,0.88010890218,-0.06271744913,50.0000,2.119
25000,4063428.8817,-255175.4820,4893192.8066,-4.9966,7.3988,4.5047,0.000,0.000,0.000,0.000,0.000,0.000,0.88011001163,-0.06271571238,50.0000,0.785398000,0.000000000,0.000000000,0.000000,-0.000002,-0.000001,0.0000,0.0000,0.0000,4063428.8817,-255175.4820,4893192.8066,-4.9966,7.3988,4.5047,0.000,0.000,0.000,0.88011001163,-0.06271571238,50.0000,2.119
26000,4063423.8851,-255168.0833,4893197.3113,-4.9966,7.3988,4.5047,0.000,0.000,0.000,0.000,0.000,0.000,0.88011112109,-0.06271397563,50.0000,0.785398000,0.000000000,0.000000000,0.000000,-0.000002,-0.000001,0.0000,0.0000,0.0000,4063423.8851,-255168.0833,4893197.3113,-4.9966,7.3988,4.5047,0.000,0.000,0.000,0.88011112109,-0.06271397563,50.0000,2.119
27000,4063418.8885,-255160.6845,4893201.8160,-4.9966,7.3988,4.5047,0.000,0.000,0.000,0.000,0.000,0.000,0.88011223054,-0.06271223888,50.0000,0.785398000,0.000000000,0.000000000,0.000000,-0.000002,-0.000001,0.0000,0.0000,0.0000,4063418.8885,-255160.6845,4893201.8160,-4.9966,7.3988,4.5047,0.000,0.000,0.000,0.88011223054,-0.06271223888,50.0000,2.119
28000,4063413.8919,-255153.2857,4893206.3208,-4.9966,7.3987,4.5047,0.000,0.000,0.000,0.000,0.000,0.000,0.88011333999,-0.06271050212,50.0000,0.785398000,0.000000000,0.000000000,0.000000,-0.000002,-0.000001,0.0000,0.0000,0.0000,4063413.8919,-255153.2857,4893206.3208,-4.9966,7.3987,4.5047,0.000,0.000,0.000,0.88011333999,-0.06271050212,50.0000,2.119
29000,4063408.8953,-255145.8870,4893210.8255,-4.9966,7.3987,4.5047,0.000,0.000,0.000,0.000,0.000,0.000,0.88011444944,-0.06270876536,50.0000,0.785398000,0.000000000,0.000000000,0.000000,-0.000002,-0.000001,0.0000,0.0000,0.0000,4063408.8953,-255145.8870,4893210.8255,-4.9966,7.3987,4.5047,0.000,0.000,0.000,0.88011444944,-0.06270876536,50.0000,2.119
30000,4063403.8987,-255138.4883,4893215.3302,-4.9966,7.3987,4.5047,0.000,0.000,0.000,0.000,0.000,0.000,0.88011555890,-0.06270702860,50.0000,0.785398000,0.000000000,0.000000000,0.000000,-0.000002,-0.000001,0.0000,0.0000,0.0000,4063403.8987,-255138.4883,4893215.3302,-4.9966,7.3987,4.5047,0.000,0.000,0.000,0.88011555890,-0.06270702860,50.0000,2.118
31000,4063398.9020,-255131.0896,4893219.8349,-4.9967,7.3987,4.5047,0.000,0.000,0.000,0.000,0.000,0.000,0.88011666835,-0.06270529183,50.0000,0.785398000,0.000000000,0.000000000,0.000000,-0.000002,-0.000001,0.0000,0.0000,0.0000,4063398.9020,-255131.0896,4893219.8349,-4.9967,7.3987,4.5047,0.000,0.000,0.000,0.88011666835,-0.06270529183,50.0000,2.118
32000,4063393.9054,-255123.6908,4893224.3396,-4.9967,7.3987,4.5047,0.000,0.000,0.000,0.000,0.000,0.000,0.88011777780,-0.06270355507,50.0000,0.785398000,0.000000000,0.000000000,0.000000,-0.000002,-0.000001,0.0000,0.0000,0.0000,4063393.9054,-255123.6908,4893224.3396,-4.9967,7.3987,4.5047,0.000,0.000,0.000,0.88011777780,-0.06270355507,50.0000,2.118
33000,4063388.9087,-255116.2921,4893228.8443,-4.9967,7.3987,4.5047,0.000,0.000,0.000,0.000,0.000,0.000,0.88011888725,-0.06270181830,50.0000,0.785398000,0.000000000,0.000000000,0.000000,-0.000002,-0.000001,0.0000,0.0000,0.0000,4063388.9087,-255116.2921,4893228.8443,-4.9967,7.3987,4.5047,0.000,0.000,0.000,0.88011888725,-0.06270181830,50.0000,2.118
34000,4063383.9120,-255108.8934,4893233.3490,-4.9967,7.3987,4.5047,0.000,0.000,0.000,0.000,0.000,0.000,0.88011999670,-0.06270008153,50.0000,0.785398000,0.000000000,0.000000000,0.000000,-0.000002,-0.000001,0.0000,0.0000,0.0000,4063383.9120,-255108.8934,4893233.3490,-4.9967,7.3987,4.5047,0.000,0.000,0.000,0.88011999670,-0.06270008153,50.0000,2.118
35000,4063378.9153,-255101.4947,4893237.8537,-4.9967,7.3987,4.5047,0.000,0.000,0.000,0.000,0.000,0.000,0.88012110616,-0.06269834476,50.0000,0.785398000,0.000000000,0.000000000,0.000000,-0.000002,-0.000001,0.0000,0.0000,0.0000,4063378.9153,-255101.4947,4893237.8537,-4.9967,7.3987,4.5047,0.000,0.000,0.000,0.88012110616,-0.06269834476,50.0000,2.118
36000,4063373.9185,-255094.0961,4893242.3583,-4.9967,7.3987,4.5047,0.000,0.000,0.000,0.000,0.000,0.000,0.88012221561,-0.06269660798,50.0000,0.785398000,0.000000000,0.000000000,0.000000,-0.000002,-0.000001,0.0000,0.0000,0.0000,4063373.9185,-255094.0961,4893242.3583,-4.9967,7.3987,4.5047,0.000,0.000,0.000,0.88012221561,-0.06269660798,50.0000,2.117
37000,4063368.9218,-255086.6974,4893246.8630,-4.9968,7.3987,4.5047,0.000,0.000,0.000,0.000,0.000,0.000,0.88012332506,-0.06269487120,50.0000,0.785398000,0.000000000,0.000000000,0.000000,-0.000002,-0.000001,0.0000,0.0000,0.0000,4063368.9218,-255086.6974,4893246.8630,-4.9968,7.3987,4.5047,0.000,0.000,0.000,0.88012332506,-0.06269487120,50.0000,2.117
38000,4063363.9250,-255079.2987,4893251.3677,-4.9968,7.3987,4.5047,0.000,0.000,0.000,0.000,0.000,0.000,0.88012443451,-0.06269313442,50.0000,0.785398000,0.000000000,0.000000000,0.000000,-0.000002,-0.000001,0.0000,0.0000,0.0000,4063363.9250,-255079.2987,4893251.3677,-4.9968,7.3987,4.5047,0.000,0.000,0.000,0.88012443451,-0.06269313442,50.0000,2.117
39000,4063358.9282,-255071.9001,4893255.8723,-4.9968,7.3987,4.5047,0.000,0.000,0.000,0.000,0.000,0.000,0.88012554397,-0.06269139764,50.0000,0.785398000,0.000000000,0.000000000,0.000000,-0.000002,-0.000001,0.0000,0.0000,0.0000,4063358.9282,-255071.9001,4893255.8723,-4.9968,7.3987,4.5047,0.000,0.000,0.000,0.88012554397,-0.06269139764,50.0000,2.117
40000,4063353.9314,-255064.5014,4893260.3770,-4.9968,7.3986,4.5046,0.000,0.000,0.000,0.000,0.000,0.000,0.88012665342,-0.06268966085,50.0000,0.785398000,0.000000000,0.000000000,0.000000,-0.000002,-0.000001,0.0000,0.0000,0.0000,4063353.9314,-255064.5014,4893260.3770,-4.9968,7.3986,4.5046,0.000,0.000,0.000,0.88012665342,-0.06268966085,50.0000,2.117
41000,4063348.9346,-255057.1028,4893264.8816,-4.9968,7.3986,4.5046,0.000,0.000,0.000,0.000,0.000,0.000,0.88012776287,-0.06268792407,50.0000,0.785398000,0.000000000,0.000000000,0.000000,-0.000002,-0.000001,0.0000,0.0000,0.0000,4063348.9346,-255057.1028,4893264.8816,-4.9968,7.3986,4.5046,0.000,0.000,0.000,0.88012776287,-0.06268792407,50.0000,2.117
42000,4063343.9377,-255049.7041,4893269.3863,-4.9969,7.3986,4.5046,0.000,0.000,0.000,0.000,0.000,0.000,0.88012887232,-0.06268618728,50.0000,0.785398000,0.000000000,0.000000000,0.000000,-0.000002,-0.000001,0.0000,0.0000,0.0000,4063343.9377,-255049.7041,4893269.3863,-4.9969,7.3986,4.5046,0.000,0.000,0.000,0.88012887232,-0.06268618728,50.0000,2.116
43000,4063338.9409,-255042.3055,4893273.8909,-4.9969,7.3986,4.5046,0.000,0.000,0.000,0.000,0.000,0.000,0.88012998178,-0.06268445049,50.0000,0.785398000,0.000000000,0.000000000,0.000000,-0.000002,-0.000001,0.0000,0.0000,0.0000,4063338.9409,-255042.3055,4893273.8909,-4.9969,7.3986,4.5046,0.000,0.000,0.000,0.88012998178,-0.06268445049,50.0000,2.116
44000,4063333.9440,-255034.9069,4893278.3955,-4.9969,7.3986,4.5046,0.000,0.000,0.000,0.000,0.000,0.000,0.88013109123,-0.06268271369,50.0000,0.785398000,0.000000000,0.000000000,0.000000,-0.000002,-0.000001,0.0000,0.0000,0.0000,4063333.9440,-255034.9069,4893278.3955,-4.9969,7.3986,4.5046,0.000,0.000,0.000,0.88013109123,-0.06268271369,50.0000,2.116
45000,4063328.9471,-255027.5083,4893282.9002,-4.9969,7.3986,4.5046,0.000,0.000,0.000,0.000,0.000,0.000,0.88013220068,-0.06268097689,50.0000,0.785398000,0.000000000,0.000000000,0.000000,-0.000002,-0.000001,0.0000,0.0000,0.0000,4063328.9471,-255027.5083,4893282.9002,-4.9969,7.3986,4.5046,0.000,0.000,0.000,0.88013220068,-0.06268097689,50.0000,2.116
46000,4063323.9502,-255020.1097,4893287.4048,-4.9969,7.3986,4.5046,0.000,0.000,0.000,0.000,0.000,0.000,0.88013331013,-0.06267924010,50.0000,0.785398000,0.000000000,0.000000000,0.000000,-0.000002,-0.000001,0.0000,0.0000,0.0000,4063323.9502,-255020.1097,4893287.4048,-4.9969,7.3986,4.5046,0.000,0.000,0.000,0.88013331013,-0.06267924010,50.0000,2.116
47000,4063318.9532,-255012.7111,4893291.9094,-4.9969,7.3986,4.5046,0.000,0.000,0.000,0.000,0.000,0.000,0.88013441958,-0.06267750329,50.0000,0.785398000,0.000000000,0.000000000,0.000000,-0.000002,-0.000001,0.0000,0.0000,0.0000,4063318.9532,-255012.7111,4893291.9094,-4.9969,7.3986,4.5046,0.000,0.000,0.000,0.88013441958,-0.06267750329,50.0000,2.116
48000,4063313.9563,-255005.3125,4893296.4140,-4.9970,7.3986,4.5046,0.000,0.000,0.000,0.000,0.000,0.000,0.88013552904,-0.06267576649,50.0000,0.785398000,0.000000000,0.000000000,0.000000,-0.000002,-0.000001,0.0000,0.0000,0.0000,4063313.9563,-255005.3125,4893296.4140,-4.9970,7.3986,4.5046,0.000,0.000,0.000,0.88013552904,-0.06267576649,50.0000,2.114
49000,4063308.9593,-254997.9140,4893300.9186,-4.9970,7.3986,4.5046,0.000,0.000,0.000,0.000,0.000,0.000,0.88013663849,-0.06267402969,50.0000,0.785398000,0.000000000,0.000000000,0.000000,-0.000002,-0.000001,0.0000,0.0000,0.0000,4063308.9593,-254997.9140,4893300.9186,-4.9970,7.3986,4.5046,0.000,0.000,0.000,0.88013663849,-0.06267402969,50.0000,2.114
50000,4063303.9623,-254990.5154,4893305.4232,-4.9970,7.3986,4.5046,0.000,0.000,0.000,0.000,0.000,0.000,0.88013774794,-0.06267229288,50.0000,0.785398000,0.000000000,0.000000000,0.000000,-0.000002,-0.000001,0.0000,0.0000,0.0000,4063303.9623,-254990.5154,4893305.4232,-4.9970,7.3986,4.5046,0.000,0.000,0.000,0.88013774794,-0.06267229288,50.0000,2.114
51000,4063298.9653,-254983.1168,4893309.9278,-4.9970,7.3986,4.5046,0.000,0.000,0.000,0.000,0.000,0.000,0.88013885739,-0.06267055607,50.0000,0.785398000,0.000000000,0.000000000,0.000000,-0.000002,-0.000001,0.0000,0.0000,0.0000,4063298.9653,-254983.1168,4893309.9278,-4.9970,7.3986,4.5046,0.000,0.000,0.000,0.88013885739,-0.06267055607,50.0000,2.114
52000,4063293.9683,-254975.7183,4893314.4323,-4.9970,7.3985,4.5046,0.000,0.000,0.000,0.000,0.000,0.000,0.88013996684,-0.06266881925,50.0000,0.785398000,0.000000000,0.000000000,0.000000,-0.000002,-0.000001,0.0000,0.0000,0.0000,4063293.9683,-254975.7183,4893314.4323,-4.9970,7.3985,4.5046,0.000,0.000,0.000,0.88013996684,-0.06266881925,50.0000,2.114
53000,4063288.9712,-254968.3198,4893318.9369,-4.9971,7.3985,4.5046,0.000,0.000,0.000,0.000,0.000,0.000,0.88014107630,-0.06266708244,50.0000,0.785398000,0.000000000,0.000000000,0.000000,-0.000002,-0.000001,0.0000,0.0000,0.0000,4063288.9712,-254968.3198,4893318.9369,-4.9971,7.3985,4.5046,0.000,0.000,0.000,0.88014107630,-0.06266708244,50.0000,2.114
54000,4063283.9742,-254960.9212,4893323.4415,-4.9971,7.3985,4.5046,0.000,0.000,0.000,0.000,0.000,0.000,0.88014218575,-0.06266534562,50.0000,0.785398000,0.000000000,0.000000000,0.000000,-0.000002,-0.000001,0.0000,0.0000,0.0000,4063283.9742,-254960.9212,4893323.4415,-4.9971,7.3985,4.5046,0.000,0.000,0.000,0.88014218575,-0.06266534562,50.0000,2.113
55000,4063278.9771,-254953.5227,4893327.9460,-4.9971,7.3985,4.5046,0.000,0.000,0.000,0.000,0.000,0.000,0.88014329520,-0.06266360880,50.0000,0.785398000,0.000000000,0.000000000,0.000000,-0.000002,-0.000001,0.0000,0.0000,0.0000,4063278.9771,-254953.5227,4893327.9460,-4.9971,7.3985,4.5046,0.000,0.000,0.000,0.88014329520,-0.06266360880,50.0000,2.113
56000,4063273.9800,-254946.1242,4893332.4506,-4.9971,7.3985,4.5046,0.000,0.000,0.000,0.000,0.000,0.000,0.88014440465,-0.06266187198,50.0000,0.785398000,0.000000000,0.000000000,0.000000,-0.000002,-0.000001,0.0000,0.0000,0.0000,4063273.9800,-254946.1242,4893332.4506,-4.9971,7.3985,4.5046,0.000,0.000,0.000,0.88014440465,-0.06266187198,50.0000,2.113
57000,4063268.9829,-254938.7257,4893336.9552,-4.9971,7.3985,4.5045,0.000,0.000,0.000,0.000,0.000,0.000,0.88014551411,-0.06266013515,50.0000,0.785398000,0.000000000,0.000000000,0.000000,-0.000002,-0.000001,0.0000,0.0000,0.0000,4063268.9829,-254938.7257,4893336.9552,-4.9971,7.3985,4.5045,0.000,0.000,0.000,0.88014551411,-0.06266013515,50.0000,2.113
58000,4063263.9858,-254931.3272,4893341.4597,-4.9971,7.3985,4.5045,0.000,0.000,0.000,0.000,0.000,0.000,0.88014662356,-0.06265839833,50.0000,0.785398000,0.000000000,0.000000000,0.000000,-0.000002,-0.000001,0.0000,0.0000,0.0000,4063263.9858,-254931.3272,4893341.4597,-4.9971,7.3985,4.5045,0.000,0.000,0.000,0.88014662356,-0.06265839833,50.0000,2.113
59000,4063258.9886,-254923.9287,4893345.9642,-4.9972,7.3985,4.5045,0.000,0.000,0.000,0.000,0.000,0.000,0.88014773301,-0.06265666150,50.0000,0.785398000,0.000000000,0.000000000,0.000000,-0.000002,-0.000001,0.0000,0.0000,0.0000,4063258.9886,-254923.9287,4893345.9642,-4.9972,7.3985,4.5045,0.000,0.000,0.000,0.88014773301,-0.06265666150,50.0000,2.113
60000,4063253.9914,-254916.5302,4893350.4688,-4.9972,7.3985,4.5045,0.000,0.000,0.000,0.000,0.000,0.000,0.88014884246,-0.06265492467,50.0000,0.785398000,0.000000000,0.000000000,0.000000,-0.000002,-0.000001,0.0000,0.0000,0.0000,4063253.9914,-254916.5302,4893350.4688,-4.9972,7.3985,4.5045,0.000,0.000,0.000,0.88014884246,-0.06265492467,50.0000,2.112
61000,4063248.9943,-254909.1317,4893354.9733,-4.9972,7.3985,4.5045,0.000,0.000,0.000,0.000,0.000,0.000,0.88014995191,-0.06265318783,50.0000,0.785398000,0.000000000,0.000000000,0.000000,-0.000002,-0.000001,0.0000,0.0000,0.0000,4063248.9943,-254909.1317,4893354.9733,-4.9972,7.3985,4.5045,0.000,0.000,0.000,0.88014995191,-0.06265318783,50.0000,2.112
62000,4063243.9971,-254901.7333,4893359.4778,-4.9972,7.3985,4.5045,0.000,0.000,0.000,0.000,0.000,0.000,0.88015106137,-0.06265145100,50.0000,0.785398000,0.000000000,0.000000000,0.000000,-0.000002,-0.000001,0.0000,0.0000,0.0000,4063243.9971,-254901.7333,4893359.4778,-4.9972,7.3985,4.5045,0.000,0.000,0.000,0.88015106137,-0.06265145100,50.0000,2.112
63000,4063238.9998,-254894.3348,4893363.9823,-4.9972,7.3985,4.5045,0.000,0.000,0.000,0.000,0.000,0.000,0.88015217082,-0.06264971416,50.0000,0.785398000,0.000000000,0.000000000,0.000000,-0.000002,-0.000001,0.0000,0.0000,0.0000,4063238.9998,-254894.3348,4893363.9823,-4.9972,7.3985,4.5045,0.000,0.000,0.000,0.88015217082,-0.06264971416,50.0000,2.112
64000,4063234.0026,-254886.9364,4893368.4868,-4.9972,7.3984,4.5045,0.000,0.000,0.000,0.000,0.000,0.000,0.88015328027,-0.06264797732,50.0000,0.785398000,0.000000000,0.000000000,0.000000,-0.000002,-0.000001,0.0000,0.0000,0.0000,4063234.0026,-254886.9364,4893368.4868,-4.9972,7.3984,4.5045,0.000,0.000,0.000,0.88015328027,-0.06264797732,50.0000,2.112
65000,4063229.0053,-254879.5379,4893372.9913,-4.9973,7.3984,4.5045,0.000,0.000,0.000,0.000,0.000,0.000,0.88015438972,-0.06264624048,50.0000,0.785398000,0.000000000,0.000000000,0.000000,-0.000002,-0.000001,0.0000,0.0000,0.0000,4063229.0053,-254879.5379,4893372.9913,-4.9973,7.3984,4.5045,0.000,0.000,0.000,0.88015438972,-0.06264624048,50.0000,2.112
66000,4063224.0081,-254872.1395,4893377.4958,-4.9973,7.3984,4.5045,0.000,0.000,0.000,0.000,0.000,0.000,0.88015549917,-0.06264450363,50.0000,0.785398000,0.000000000,0.000000000,0.000000,-0.000002,-0.000001,0.0000,0.0000,0.0000,4063224.0081,-254872.1395,4893377.4958,-4.9973,7.3984,4.5045,0.000,0.000,0.000,0.88015549917,-0.06264450363,50.0000,2.111
67000,4063219.0108,-254864.7411,4893382.0003,-4.9973,7.3984,4.5045,0.000,0.000,0.000,0.000,0.000,0.000,0.88015660862,-0.06264276678,50.0000,0.785398000,0.000000000,0.000000000,0.000000,-0.000002,-0.000001,0.0000,0.0000,0.0000,4063219.0108,-254864.7411,4893382.0003,-4.9973,7.3984,4.5045,0.000,0.000,0.000,0.88015660862,-0.06264276678,50.0000,2.111
68000,4063214.0135,-254857.3427,4893386.5048,-4.9973,7.3984,4.5045,0.000,0.000,0.000,0.000,0.000,0.000,0.88015771808,-0.06264102993,50.0000,0.785398000,0.000000000,0.000000000,0.000000,-0.000002,-0.000001,0.0000,0.0000,0.0000,4063214.0135,-254857.3427,4893386.5048,-4.9973,7.3984,4.5045,0.000,0.000,0.000,0.88015771808,-0.06264102993,50.0000,2.111
69000,4063209.0161,-254849.9443,4893391.0093,-4.9973,7.3984,4.5045,0.000,0.000,0.000,0.000,0.000,0.000,0.88015882753,-0.06263929308,50.0000,0.785398000,0.000000000,0.000000000,0.000000,-0.000002,-0.000001,0.0000,0.0000,0.0000,4063209.0161,-254849.9443,4893391.0093,-4.9973,7.3984,4.5045,0.000,0.000,0.000,0.88015882753,-0.06263929308,50.0000,2.111
70000,4063204.0188,-254842.5459,4893395.5137,-4.9974,7.3984,4.5045,0.000,0.000,0.000,0.000,0.000,0.000,0.88015993698,-0.06263755623,50.0000,0.785398000,0.000000000,0.000000000,0.000000,-0.000002,-0.000001,0.0000,0.0000,0.0000,4063204.0188,-254842.5459,4893395.5137,-4.9974,7.3984,4.5045,0.000,0.000,0.000,0.88015993698,-0.06263755623,50.0000,2.111
71000,4063199.0214,-254835.1475,4893400.0182,-4.9974,7.3984,4.5045,0.000,0.000,0.000,0.000,0.000,0.000,0.88016104643,-0.06263581937,50.0000,0.785398000,0.000000000,0.000000000,0.000000,-0.000002,-0.000001,0.0000,0.0000,0.0000,4063199.0214,-254835.1475,4893400.0182,-4.9974,7.3984,4.5045,0.000,0.000,0.000,0.88016104643,-0.06263581937,50.0000,2.111
72000,4063194.0241,-254827.7491,4893404.5227,-4.9974,7.3984,4.5045,0.000,0.000,0.000,0.000,0.000,0.000,0.88016215588,-0.06263408251,50.0000,0.785398000,0.000000000,0.000000000,0.000000,-0.000002,-0.000001,0.0000,0.0000,0.0000,4063194.0241,-254827.7491,4893404.5227,-4.9974,7.3984,4.5045,0.000,0.000,0.000,0.88016215588,-0.06263408251,50.0000,2.110
73000,4063189.0267,-254820.3507,4893409.0271,-4.9974,7.3984,4.5044,0.000,0.000,0.000,0.000,0.000,0.000,0.88016326534,-0.06263234565,50.0000,0.785398000,0.000000000,0.000000000,0.000000,-0.000002,-0.000001,0.0000,0.0000,0.0000,4063189.0267,-254820.3507,4893409.0271,-4.9974,7.3984,4.5044,0.000,0.000,0.000,0.88016326534,-0.06263234565,50.0000,2.110
74000,4063184.0292,-254812.9524,4893413.5316,-4.9974,7.3984,4.5044,0.000,0.000,0.000,0.000,0.000,0.000,0.88016437479,-0.06263060878,50.0000,0.785398000,0.000000000,0.000000000,0.000000,-0.000002,-0.000001,0.0000,0.0000,0.0000,4063184.0292,-254812.9524,4893413.5316,-4.9974,7.3984,4.5044,0.000,0.000,0.000,0.88016437479,-0.06263060878,50.0000,2.110
75000,4063179.0318,-254805.5540,4893418.0360,-4.9974,7.3984,4.5044,0.000,0.000,0.000,0.000,0.000,0.000,0.88016548424,-0.06262887192,50.0000,0.785398000,0.000000000,0.000000000,0.000000,-0.000002,-0.000001,0.0000,0.0000,0.0000,4063179.0318,-254805.5540,4893418.0360,-4.9974,7.3984,4.5044,0.000,0.000,0.000,0.88016548424,-0.06262887192,50.0000,2.110
76000,4063174.0344,-254798.1557,4893422.5404,-4.9975,7.3983,4.5044,0.000,0.000,0.000,0.000,0.000,0.000,0.88016659369,-0.06262713505,50.0000,0.785398000,0.000000000,0.000000000,0.000000,-0.000002,-0.000001,0.0000,0.0000,0.0000,4063174.0344,-254798.1557,4893422.5404,-4.9975,7.3983,4.5044,0.000,0.000,0.000,0.88016659369,-0.06262713505,50.0000,2.110
77000,4063169.0369,-254790.7573,4893427.0449,-4.9975,7.3983,4.5044,0.000,0.000,0.000,0.000,0.000,0.000,0.88016770314,-0.06262539818,50.0000,0.785398000,0.000000000,0.000000000,0.000000,-0.000002,-0.000001,0.0000,0.0000,0.0000,4063169.0369,-254790.7573,4893427.0449,-4.9975,7.3983,4.5044,0.000,0.000,0.000,0.88016770314,-0.06262539818,50.0000,2.110
78000,4063164.0394,-254783.3590,4893431.5493,-4.9975,7.3983,4.5044,0.000,0.000,0.000,0.000,0.000,0.000,0.88016881260,-0.06262366130,50.0000,0.785398000,0.000000000,0.000000000,0.000000,-0.000002,-0.000001,0.0000,0.0000,0.0000,4063164.0394,-254783.3590,4893431.5493,-4.9975,7.3983,4.5044,0.000,0.000,0.000,0.88016881260,-0.06262366130,50.0000,2.108
79000,4063159.0419,-254775.9607,4893436.0537,-4.9975,7.3983,4.5044,0.000,0.000,0.000,0.000,0.000,0.000,0.88016992205,-0.06262192443,50.0000,0.785398000,0.000000000,0.000000000,0.000000,-0.000002,-0.000001,0.0000,0.0000,0.0000,4063159.0419,-254775.9607,4893436.0537,-4.9975,7.3983,4.5044,0.000,0.000,0.000,0.88016992205,-0.06262192443,50.0000,2.108
80000,4063154.0444,-254768.5624,4893440.5581,-4.9975,7.3983,4.5044,0.000,0.000,0.000,0.000,0.000,0.000,0.88017103150,-0.06262018755,50.0000,0.785398000,0.000000000,0.000000000,0.000000,-0.000002,-0.000001,0.0000,0.0000,0.0000,4063154.0444,-254768.5624,4893440.5581,-4.9975,7.3983,4.5044,0.000,0.000,0.000,0.88017103150,-0.06262018755,50.0000,2.108
81000,4063149.0468,-254761.1640,4893445.0625,-4.9976,7.3983,4.5044,0.000,0.000,0.000,0.000,0.000,0.000,0.88017214095,-0.06261845067,50.0000,0.785398000,0.000000000,0.000000000,0.000000,-0.000002,-0.000001,0.0000,0.0000,0.0000,4063149.0468,-254761.1640,4893445.0625,-4.9976,7.3983,4.5044,0.000,0.000,0.000,0.88017214095,-0.06261845067,50.0000,2.108
82000,4063144.0493,-254753.7657,4893449.5669,-4.9976,7.3983,4.5044,0.000,0.000,0.000,0.000,0.000,0.000,0.88017325040,-0.06261671379,50.0000,0.785398000,0.000000000,0.000000000,0.000000,-0.000002,-0.000001,0.0000,0.0000,0.0000,4063144.0493,-254753.7657,4893449.5669,-4.9976,7.3983,4.5044,0.000,0.000,0.000,0.88017325040,-0.06261671379,50.0000,2.108
83000,4063139.0517,-254746.3675,4893454.0713,-4.9976,7.3983,4.5044,0.000,0.000,0.000,0.000,0.000,0.000,0.88017435985,-0.06261497690,50.0000,0.785398000,0.000000000,0.000000000,0.000000,-0.000002,-0.000001,0.0000,0.0000,0.0000,4063139.0517,-254746.3675,4893454.0713,-4.9976,7.3983,4.5044,0.000,0.000,0.000,0.88017435985,-0.06261497690,50.0000,2.108
84000,4063134.0541,-254738.9692,4893458.5757,-4.9976,7.3983,4.5044,0.000,0.000,0.000,0.000,0.000,0.000,0.88017546931,-0.06261324002,50.0000,0.785398000,0.000000000,0.000000000,0.000000,-0.000002,-0.000001,0.0000,0.0000,0.0000,4063134.0541,-254738.9692,4893458.5757,-4.9976,7.3983,4.5044,0.000,0.000,0.000,0.88017546931,-0.06261324002,50.0000,2.107
85000,4063129.0565,-254731.5709,4893463.0801,-4.9976,7.3983,4.5044,0.000,0.000,0.000,0.000,0.000,0.000,0.88017657876,-0.06261150313,50.0000,0.785398000,0.000000000,0.000000000,0.000000,-0.000002,-0.000001,0.0000,0.0000,0.0000,4063129.0565,-254731.5709,4893463.0801,-4.9976,7.3983,4.5044,0.000,0.000,0.000,0.88017657876,-0.06261150313,50.0000,2.107
86000,4063124.0588,-254724.1726,4893467.5845,-4.9976,7.3983,4.5044,0.000,0.000,0.000,0.000,0.000,0.000,0.88017768821,-0.06260976623,50.0000,0.785398000,0.000000000,0.000000000,0.000000,-0.000002,-0.000001,0.0000,0.0000,0.0000,4063124.0588,-254724.1726,4893467.5845,-4.9976,7.3983,4.5044,0.000,0.000,0.000,0.88017768821,-0.06260976623,50.0000,2.107
87000,4063119.0612,-254716.7744,4893472.0888,-4.9977,7.3983,4.5044,0.000,0.000,0.000,0.000,0.000,0.000,0.88017879766,-0.06260802934,50.0000,0.785398000,0.000000000,0.000000000,0.000000,-0.000002,-0.000001,0.0000,0.0000,0.0000,4063119.0612,-254716.7744,4893472.0888,-4.9977,7.3983,4.5044,0.000,0.000,0.000,0.88017879766,-0.06260802934,50.0000,2.107
88000,4063114.0635,-254709.3761,4893476.5932,-4.9977,7.3982,4.5044,0.000,0.000,0.000,0.000,0.000,0.000,0.88017990711,-0.06260629244,50.0000,0.785398000,0.000000000,0.000000000,0.000000,-0.000002,-0.000001,0.0000,0.0000,0.0000,4063114.0635,-254709.3761,4893476.5932,-4.9977,7.3982,4.5044,0.000,0.000,0.000,0.88017990711,-0.06260629244,50.0000,2.107
89000,4063109.0658,-254701.9779,4893481.0975,-4.9977,7.3982,4.5044,0.000,0.000,0.000,0.000,0.000,0.000,0.88018101656,-0.06260455554,50.0000,0.785398000,0.000000000,0.000000000,0.000000,-0.000002,-0.000001,0.0000,0.0000,0.0000,4063109.0658,-254701.9779,4893481.0975,-4.9977,7.3982,4.5044,0.000,0.000,0.000,0.88018101656,-0.06260455554,50.0000,2.107
90000,4063104.0681,-254694.5797,4893485.6019,-4.9977,7.3982,4.5043,0.000,0.000,0.000,0.000,0.000,0.000,0.88018212602,-0.06260281864,50.0000,0.785398000,0.000000000,0.000000000,0.000000,-0.000002,-0.000001,0.0000,0.0000,0.0000,4063104.0681,-254694.5797,4893485.6019,-4.9977,7.3982,4.5043,0.000,0.000,0.000,0.88018212602,-0.06260281864,50.0000,2.106
91000,4063099.0704,-254687.1815,4893490.1062,-4.9977,7.3982,4.5043,0.000,0.000,0.000,0.000,0.000,0.000,0.88018323547,-0.06260108174,50.0000,0.785398000,0.000000000,0.000000000,0.000000,-0.000002,-0.000001,0.0000,0.0000,0.0000,4063099.0704,-254687.1815,4893490.1062,-4.9977,7.3982,4.5043,0.000,0.000,0.000,0.88018323547,-0.06260108174,50.0000,2.106
92000,4063094.0727,-254679.7832,4893494.6106,-4.9977,7.3982,4.5043,0.000,0.000,0.000,0.000,0.000,0.000,0.88018434492,-0.06259934483,50.0000,0.785398000,0.000000000,0.000000000,0.000000,-0.000002,-0.000001,0.0000,0.0000,0.0000,4063094.0727,-254679.7832,4893494.6106,-4.9977,7.3982,4.5043,0.000,0.000,0.000,0.88018434492,-0.06259934483,50.0000,2.106
93000,4063089.0749,-254672.3850,4893499.1149,-4.9978,7.3982,4.5043,0.000,0.000,0.000,0.000,0.000,0.000,0.88018545437,-0.06259760793,50.0000,0.785398000,0.000000000,0.000000000,0.000000,-0.000002,-0.000001,0.0000,0.0000,0.0000,4063089.0749,-254672.3850,4893499.1149,-4.9978,7.3982,4.5043,0.000,0.000,0.000,0.88018545437,-0.06259760793,50.0000,2.106
94000,4063084.0772,-254664.9868,4893503.6192,-4.9978,7.3982,4.5043,0.000,0.000,0.000,0.000,0.000,0.000,0.88018656382,-0.06259587102,50.0000,0.785398000,0.000000000,0.000000000,0.000000,-0.000002,-0.000001,0.0000,0.0000,0.0000,4063084.0772,-254664.9868,4893503.6192,-4.9978,7.3982,4.5043,0.000,0.000,0.000,0.88018656382,-0.06259587102,50.0000,2.106
95000,4063079.0794,-254657.5887,4893508.1236,-4.9978,7.3982,4.5043,0.000,0.000,0.000,0.000,0.000,0.000,0.88018767327,-0.06259413410,50.0000,0.785398000,0.000000000,0.000000000,0.000000,-0.000002,-0.000001,0.0000,0.0000,0.0000,4063079.0794,-254657.5887,4893508.1236,-4.9978,7.3982,4.5043,0.000,0.000,0.000,0.88018767327,-0.06259413410,50.0000,2.106
96000,4063074.0816,-254650.1905,4893512.6279,-4.9978,7.3982,4.5043,0.000,0.000,0.000,0.000,0.000,0.000,0.88018878273,-0.06259239719,50.0000,0.785398000,0.000000000,0.000000000,0.000000,-0.000002,-0.000001,0.0000,0.0000,0.0000,4063074.0816,-254650.1905,4893512.6279,-4.9978,7.3982,4.5043,0.000,0.000,0.000,0.88018878273,-0.06259239719,50.0000,2.105
97000,4063069.0837,-254642.7923,4893517.1322,-4.9978,7.3982,4.5043,0.000,0.000,0.000,0.000,0.000,0.000,0.88018989218,-0.06259066027,50.0000,0.785398000,0.000000000,0.000000000,0.000000,-0.000002,-0.000001,0.0000,0.0000,0.0000,4063069.0837,-254642.7923,4893517.1322,-4.9978,7.3982,4.5043,0.000,0.000,0.000,0.88018989218,-0.06259066027,50.0000,2.105
98000,4063064.0859,-254635.3941,4893521.6365,-4.9979,7.3982,4.5043,0.000,0.000,0.000,0.000,0.000,0.000,0.88019100163,-0.06258892335,50.0000,0.785398000,0.000000000,0.000000000,0.000000,-0.000002,-0.000001,0.0000,0.0000,0.0000,4063064.0859,-254635.3941,4893521.6365,-4.9979,7.3982,4.5043,0.000,0.000,0.000,0.88019100163,-0.06258892335,50.0000,2.105
99000,4063059.0880,-254627.9960,4893526.1408,-4.9979,7.3982,4.5043,0.000,0.000,0.000,0.000,0.000,0.000,0.88019211108,-0.06258718643,50.0000,0.785398000,0.000000000,0.000000000,0.000000,-0.000002,-0.000001,0.0000,0.0000,0.0000,4063059.0880,-254627.9960,4893526.1408,-4.9979,7.3982,4.5043,0.000,0.000,0.000,0.88019211108,-0.06258718643,50.0000,2.105
100000,4063054.0901,-254620.5978,4893530.6451,-4.9979,7.3981,4.5043,0.000,0.000,0.000,0.000,0.000,0.000,0.88019322053,-0.06258544950,50.0000,0.785398000,0.000000000,0.000000000,0.000000,-0.000002,-0.000001,0.0000,0.0000,0.0000,4063054.0901,-254620.5978,4893530.6451,-4.9979,7.3981,4.5043,0.000,0.000,0.000,0.88019322053,-0.06258544950,50.0000,2.105
101000,4063049.0922,-254613.1997,4893535.1493,-4.9979,7.3981,4.5043,0.000,0.000,0.000,0.000,0.000,0.000,0.88019432998,-0.06258371258,50.0000,0.785398000,0.000000000,0.000000000,0.000000,-0.000002,-0.000001,0.0000,0.0000,0.0000,4063049.0922,-254613.1997,4893535.1493,-4.9979,7.3981,4.5043,0.000,0.000,0.000,0.88019432998,-0.06258371258,50.0000,2.105
102000,4063044.0943,-254605.8016,4893539.6536,-4.9979,7.3981,4.5043,0.000,0.000,0.000,0.000,0.000,0.000,0.88019543944,-0.06258197565,50.0000,0.785398000,0.000000000,0.000000000,0.000000,-0.000002,-0.000001,0.0000,0.0000,0.0000,4063044.0943,-254605.8016,4893539.6536,-4.9979,7.3981,4.5043,0.000,0.000,0.000,0.88019543944,-0.06258197565,50.0000,2.104
103000,4063039.0964,-254598.4035,4893544.1579,-4.9979,7.3981,4.5043,0.000,0.000,0.000,0.000,0.000,0.000,0.88019654889,-0.06258023872,50.0000,0.785398000,0.000000000,0.000000000,0.000000,-0.000002,-0.000001,0.0000,0.0000,0.0000,4063039.0964,-254598.4035,4893544.1579,-4.9979,7.3981,4.5043,0.000,0.000,0.000,0.88019654889,-0.06258023872,50.0000,2.104
104000,4063034.0984,-254591.0053,4893548.6622,-4.9980,7.3981,4.5043,0.000,0.000,0.000,0.000,0.000,0.000,0.88019765834,-0.06257850178,50.0000,0.785398000,0.000000000,0.000000000,0.000000,-0.000002,-0.000001,0.0000,0.0000,0.0000,4063034.0984,-254591.0053,4893548.6622,-4.9980,7.3981,4.5043,0.000,0.000,0.000,0.88019765834,-0.06257850178,50.0000,2.104
105000,4063029.1005,-254583.6072,4893553.1664,-4.9980,7.3981,4.5043,0.000,0.000,0.000,0.000,0.000,0.000,0.88019876779,-0.06257676485,50.0000,0.785398000,0.000000000,0.000000000,0.000000,-0.000002,-0.000001,0.0000,0.0000,0.0000,4063029.1005,-254583.6072,4893553.1664,-4.9980,7.3981,4.5043,0.000,0.000,0.000,0.88019876779,-0.06257676485,50.0000,2.104
106000,4063024.1025,-254576.2091,4893557.6707,-4.9980,7.3981,4.5043,0.000,0.000,0.000,0.000,0.000,0.000,0.88019987724,-0.06257502791,50.0000,0.785398000,0.000000000,0.000000000,0.000000,-0.000002,-0.000001,0.0000,0.0000,0.0000,4063024.1025,-254576.2091,4893557.6707,-4.9980,7.3981,4.5043,0.000,0.000,0.000,0.88019987724,-0.06257502791,50.0000,2.104
107000,4063019.1045,-254568.8110,4893562.1749,-4.9980,7.3981,4.5042,0.000,0.000,0.000,0.000,0.000,0.000,0.88020098669,-0.06257329097,50.0000,0.785398000,0.000000000,0.000000000,0.000000,-0.000002,-0.000001,0.0000,0.0000,0.0000,4063019.1045,-254568.8110,4893562.1749,-4.9980,7.3981,4.5042,0.000,0.000,0.000,0.88020098669,-0.06257329097,50.0000,2.104
108000,4063014.1065,-254561.4130,4893566.6792,-4.9980,7.3981,4.5042,0.000,0.000,0.000,0.000,0.000,0.000,0.88020209614,-0.06257155402,50.0000,0.785398000,0.000000000,0.000000000,0.000000,-0.000002,-0.000001,0.0000,0.0000,0.0000,4063014.1065,-254561.4130,4893566.6792,-4.9980,7.3981,4.5042,0.000,0.000,0.000,0.88020209614,-0.06257155402,50.0000,2.102
109000,4063009.1084,-254554.0149,4893571.1834,-4.9980,7.3981,4.5042,0.000,0.000,0.000,0.000,0.000,0.000,0.88020320560,-0.06256981708,50.0000,0.785398000,0.000000000,0.000000000,0.000000,-0.000002,-0.000001,0.0000,0.0000,0.0000,4063009.1084,-254554.0149,4893571.1834,-4.9980,7.3981,4.5042,0.000,0.000,0.000,0.88020320560,-0.06256981708,50.0000,2.102
110000,4063004.1104,-254546.6168,4893575.6876,-4.9981,7.3981,4.5042,0.000,0.000,0.000,0.000,0.000,0.000,0.88020431505,-0.06256808013,50.0000,0.785398000,0.000000000,0.000000000,0.000000,-0.000002,-0.000001,0.0000,0.0000,0.0000,4063004.1104,-254546.6168,4893575.6876,-4.9981,7.3981,4.5042,0.000,0.000,0.000,0.88020431505,-0.06256808013,50.0000,2.102
111000,4062999.1123,-254539.2188,4893580.1919,-4.9981,7.3980,4.5042,0.000,0.000,0.000,0.000,0.000,0.000,0.88020542450,-0.06256634318,50.0000,0.785398000,0.000000000,0.000000000,0.000000,-0.000002,-0.000001,0.0000,0.0000,0.0000,4062999.1123,-254539.2188,4893580.1919,-4.9981,7.3980,4.5042,0.000,0.000,0.000,0.88020542450,-0.06256634318,50.0000,2.102
112000,4062994.1142,-254531.8207,4893584.6961,-4.9981,7.3980,4.5042,0.000,0.000,0.000,0.000,0.000,0.000,0.88020653395,-0.06256460623,50.0000,0.785398000,0.000000000,0.000000000,0.000000,-0.000002,-0.000001,0.0000,0.0000,0.0000,4062994.1142,-254531.8207,4893584.6961,-4.9981,7.3980,4.5042,0.000,0.000,0.000,0.88020653395,-0.06256460623,50.0000,2.102
113000,4062989.1161,-254524.4227,4893589.2003,-4.9981,7.3980,4.5042,0.000,0.000,0.000,0.000,0.000,0.000,0.88020764340,-0.06256286927,50.0000,0.785398000,0.000000000,0.000000000,0.000000,-0.000002,-0.000001,0.0000,0.0000,0.0000,4062989.1161,-254524.4227,4893589.2003,-4.9981,7.3980,4.5042,0.000,0.000,0.000,0.88020764340,-0.06256286927,50.0000,2.102
114000,4062984.1179,-254517.0247,4893593.7045,-4.9981,7.3980,4.5042,0.000,0.000,0.000,0.000,0.000,0.000,0.88020875285,-0.06256113232,50.0000,0.785398000,0.000000000,0.000000000,0.000000,-0.000002,-0.000001,0.0000,0.0000,0.0000,4062984.1179,-254517.0247,4893593.7045,-4.9981,7.3980,4.5042,0.000,0.000,0.000,0.88020875285,-0.06256113232,50.0000,2.101
115000,4062979.1198,-254509.6267,4893598.2087,-4.9982,7.3980,4.5042,0.000,0.000,0.000,0.000,0.000,0.000,0.88020986230,-0.06255939536,50.0000,0.785398000,0.000000000,0.000000000,0.000000,-0.000002,-0.000001,0.0000,0.0000,0.0000,4062979.1198,-254509.6267,4893598.2087,-4.9982,7.3980,4.5042,0.000,0.000,0.000,0.88020986230,-0.06255939536,50.0000,2.101
116000,4062974.1216,-254502.2286,4893602.7129,-4.9982,7.3980,4.5042,0.000,0.000,0.000,0.000,0.000,0.000,0.88021097176,-0.06255765840,50.0000,0.785398000,0.000000000,0.000000000,0.000000,-0.000002,-0.000001,0.0000,0.0000,0.0000,4062974.1216,-254502.2286,4893602.7129,-4.9982,7.3980,4.5042,0.000,0.000,0.000,0.88021097176,-0.06255765840,50.0000,2.101
117000,4062969.1234,-254494.8306,4893607.2171,-4.9982,7.3980,4.5042,0.000,0.000,0.000,0.000,0.000,0.000,0.88021208121,-0.06255592143,50.0000,0.785398000,0.000000000,0.000000000,0.000000,-0.000002,-0.000001,0.0000,0.0000,0.0000,4062969.1234,-254494.8306,4893607.2171,-4.9982,7.3980,4.5042,0.000,0.000,0.000,0.88021208121,-0.06255592143,50.0000,2.101
118000,4062964.1252,-254487.4326,4893611.7212,-4.9982,7.3980,4.5042,0.000,0.000,0.000,0.000,0.000,0.000,0.88021319066,-0.06255418447,50.0000,0.785398000,0.000000000,0.000000000,0.000000,-0.000002,-0.000001,0.0000,0.0000,0.0000,4062964.1252,-254487.4326,4893611.7212,-4.9982,7.3980,4.5042,0.000,0.000,0.000,0.88021319066,-0.06255418447,50.0000,2.101
119000,4062959.1270,-254480.0347,4893616.2254,-4.9982,7.3980,4.5042,0.000,0.000,0.000,0.000,0.000,0.000,0.88021430011,-0.06255244750,50.0000,0.785398000,0.000000000,0.000000000,0.000000,-0.000002,-0.000001,0.0000,0.0000,0.0000,4062959.1270,-254480.0347,4893616.2254,-4.9982,7.3980,4.5042,0.000,0.000,0.000,0.88021430011,-0.06255244750,50.0000,2.101
120000,4062954.1288,-254472.6367,4893620.7296,-4.9982,7.3980,4.5042,0.000,0.000,0.000,0.000,0.000,0.000,0.88021540956,-0.06255071053,50.0000,0.785398000,0.000000000,0.000000000,0.000000,-0.000002,-0.000001,0.0000,0.0000,0.0000,4062954.1288,-254472.6367,4893620.7296,-4.9982,7.3980,4.5042,0.000,0.000,0.000,0.88021540956,-0.06255071053,50.0000,2.100
121000,4062949.1305,-254465.2387,4893625.2337,-4.9983,7.3980,4.5042,0.000,0.000,0.000,0.000,0.000,0.000,0.88021651901,-0.06254897355,50.0000,0.785398000,0.000000000,0.000000000,0.000000,-0.000002,-0.000001,0.0000,0.0000,0.0000,4062949.1305,-254465.2387,4893625.2337,-4.9983,7.3980,4.5042,0.000,0.000,0.000,0.88021651901,-0.06254897355,50.0000,2.100
122000,4062944.1323,-254457.8407,4893629.7379,-4.9983,7.3980,4.5042,0.000,0.000,0.000,0.000,0.000,0.000,0.88021762846,-0.06254723658,50.0000,0.785398000,0.000000000,0.000000000,0.000000,-0.000002,-0.000001,0.0000,0.0000,0.0000,4062944.1323,-254457.8407,4893629.7379,-4.9983,7.3980,4.5042,0.000,0.000,0.000,0.88021762846,-0.06254723658,50.0000,2.100
123000,4062939.1340,-254450.4428,4893634.2421,-4.9983,7.3979,4.5041,0.000,0.000,0.000,0.000,0.000,0.000,0.88021873791,-0.06254549960,50.0000,0.785398000,0.000000000,0.000000000,0.000000,-0.000002,-0.000001,0.0000,0.0000,0.0000,4062939.1340,-254450.4428,4893634.2421,-4.9983,7.3979,4.5041,0.000,0.000,0.000,0.88021873791,-0.06254549960,50.0000,2.100
124000,4062934.1357,-254443.0448,4893638.7462,-4.9983,7.3979,4.5041,0.000,0.000,0.000,0.000,0.000,0.000,0.88021984737,-0.06254376262,50.0000,0.785398000,0.000000000,0.000000000,0.000000,-0.000002,-0.000001,0.0000,0.0000,0.0000,4062934.1357,-254443.0448,4893638.7462,-4.9983,7.3979,4.5041,0.000,0.000,0.000,0.88021984737,-0.06254376262,50.0000,2.100
125000,4062929.1373,-254435.6469,4893643.2503,-4.9983,7.3979,4.5041,0.000,0.000,0.000,0.000,0.000,0.000,0.88022095682,-0.06254202564,50.0000,0.785398000,0.000000000,0.000000000,0.000000,-0.000002,-0.000001,0.0000,0.0000,0.0000,4062929.1373,-254435.6469,4893643.2503,-4.9983,7.3979,4.5041,0.000,0.000,0.000,0.88022095682,-0.06254202564,50.0000,2.100
126000,4062924.1390,-254428.2490,4893647.7545,-4.9984,7.3979,4.5041,0.000,0.000,0.000,0.000,0.000,0.000,0.88022206627,-0.06254028865,50.0000,0.785398000,0.000000000,0.000000000,0.000000,-0.000002,-0.000001,0.0000,0.0000,0.0000,4062924.1390,-254428.2490,4893647.7545,-4.9984,7.3979,4.5041,0.000,0.000,0.000,0.88022206627,-0.06254028865,50.0000,2.099
127000,4062919.1406,-254420.8511,4893652.2586,-4.9984,7.3979,4.5041,0.000,0.000,0.000,0.000,0.000,0.000,0.88022317572,-0.06253855166,50.0000,0.785398000,0.000000000,0.000000000,0.000000,-0.000002,-0.000001,0.0000,0.0000,0.0000,4062919.1406,-254420.8511,4893652.2586,-4.9984,7.3979,4.5041,0.000,0.000,0.000,0.88022317572,-0.06253855166,50.0000,2.099
128000,4062914.1422,-254413.4531,4893656.7627,-4.9984,7.3979,4.5041,0.000,0.000,0.000,0.000,0.000,0.000,0.88022428517,-0.06253681467,50.0000,0.785398000,0.000000000,0.000000000,0.000000,-0.000002,-0.000001,0.0000,0.0000,0.0000,4062914.1422,-254413.4531,4893656.7627,-4.9984,7.3979,4.5041,0.000,0.000,0.000,0.88022428517,-0.06253681467,50.0000,2.099
129000,4062909.1438,-254406.0552,4893661.2668,-4.9984,7.3979,4.5041,0.000,0.000,0.000,0.000,0.000,0.000,0.88022539462,-0.06253507768,50.0000,0.785398000,0.000000000,0.000000000,0.000000,-0.000002,-0.000001,0.0000,0.0000,0.0000,4062909.1438,-254406.0552,4893661.2668,-4.9984,7.3979,4.5041,0.000,0.000,0.000,0.88022539462,-0.06253507768,50.0000,2.099
130000,4062904.1454,-254398.6573,4893665.7709,-4.9984,7.3979,4.5041,0.000,0.000,0.000,0.000,0.000,0.000,0.88022650407,-0.06253334069,50.0000,0.785398000,0.000000000,0.000000000,0.000000,-0.000002,-0.000001,0.0000,0.0000,0.0000,4062904.1454,-254398.6573,4893665.7709,-4.9984,7.3979,4.5041,0.000,0.000,0.000,0.88022650407,-0.06253334069,50.0000,2.099
131000,4062899.1470,-254391.2595,4893670.2750,-4.9984,7.3979,4.5041,0.000,0.000,0.000,0.000,0.000,0.000,0.88022761352,-0.06253160369,50.0000,0.785398000,0.000000000,0.000000000,0.000000,-0.000002,-0.000001,0.0000,0.0000,0.0000,4062899.1470,-254391.2595,4893670.2750,-4.9984,7.3979,4.5041,0.000,0.000,0.000,0.88022761352,-0.06253160369,50.0000,2.099
132000,4062894.1485,-254383.8616,4893674.7791,-4.9985,7.3979,4.5041,0.000,0.000,0.000,0.000,0.000,0.000,0.88022872297,-0.06252986669,50.0000,0.785398000,0.000000000,0.000000000,0.000000,-0.000002,-0.000001,0.0000,0.0000,0.0000,4062894.1485,-254383.8616,4893674.7791,-4.9985,7.3979,4.5041,0.000,0.000,0.000,0.88022872297,-0.06252986669,50.0000,2.098
133000,4062889.1501,-254376.4637,4893679.2832,-4.9985,7.3979,4.5041,0.000,0.000,0.000,0.000,0.000,0.000,0.88022983243,-0.06252812969,50.0000,0.785398000,0.000000000,0.000000000,0.000000,-0.000002,-0.000001,0.0000,0.0000,0.0000,4062889.1501,-254376.4637,4893679.2832,-4.9985,7.3979,4.5041,0.000,0.000,0.000,0.88022983243,-0.06252812969,50.0000,2.098
134000,4062884.1516,-254369.0658,4893683.7873,-4.9985,7.3979,4.5041,0.000,0.000,0.000,0.000,0.000,0.000,0.88023094188,-0.06252639269,50.0000,0.785398000,0.000000000,0.000000000,0.000000,-0.000002,-0.000001,0.0000,0.0000,0.0000,4062884.1516,-254369.0658,4893683.7873,-4.9985,7.3979,4.5041,0.000,0.000,0.000,0.88023094188,-0.06252639269,50.0000,2.098
135000,4062879.1531,-254361.6680,4893688.2914,-4.9985,7.3978,4.5041,0.000,0.000,0.000,0.000,0.000,0.000,0.88023205133,-0.06252465568,50.0000,0.785398000,0.000000000,0.000000000,0.000000,-0.000002,-0.000001,0.0000,0.0000,0.0000,4062879.1531,-254361.6680,4893688.2914,-4.9985,7.3978,4.5041,0.000,0.000,0.000,0.88023205133,-0.06252465568,50.0000,2.098
136000,4062874.1546,-254354.2702,4893692.7955,-4.9985,7.3978,4.5041,0.000,0.000,0.000,0.000,0.000,0.000,0.88023316078,-0.06252291867,50.0000,0.785398000,0.000000000,0.000000000,0.000000,-0.000002,-0.000001,0.0000,0.0000,0.0000,4062874.1546,-254354.2702,4893692.7955,-4.9985,7.3978,4.5041,0.000,0.000,0.000,0.88023316078,-0.06252291867,50.0000,2.098
137000,4062869.1560,-254346.8723,4893697.2995,-4.9985,7.3978,4.5041,0.000,0.000,0.000,0.000,0.000,0.000,0.88023427023,-0.06252118166,50.0000,0.785398000,0.000000000,0.000000000,0.000000,-0.000002,-0.000001,0.0000,0.0000,0.0000,4062869.1560,-254346.8723,4893697.2995,-4.9985,7.3978,4.5041,0.000,0.000,0.000,0.88023427023,-0.06252118166,50.0000,2.098
138000,4062864.1575,-254339.4745,4893701.8036,-4.9986,7.3978,4.5041,0.000,0.000,0.000,0.000,0.000,0.000,0.88023537968,-0.06251944465,50.0000,0.785398000,0.000000000,0.000000000,0.000000,-0.000002,-0.000001,0.0000,0.0000,0.0000,4062864.1575,-254339.4745,4893701.8036,-4.9986,7.3978,4.5041,0.000,0.000,0.000,0.88023537968,-0.06251944465,50.0000,2.097
139000,4062859.1589,-254332.0767,4893706.3076,-4.9986,7.3978,4.5041,0.000,0.000,0.000,0.000,0.000,0.000,0.88023648913,-0.06251770764,50.0000,0.785398000,0.000000000,0.000000000,0.000000,-0.000002,-0.000001,0.0000,0.0000,0.0000,4062859.1589,-254332.0767,4893706.3076,-4.9986,7.3978,4.5041,0.000,0.000,0.000,0.88023648913,-0.06251770764,50.0000,2.097
140000,4062854.1603,-254324.6789,4893710.8117,-4.9986,7.3978,4.5040,0.000,0.000,0.000,0.000,0.000,0.000,0.88023759858,-0.06251597062,50.0000,0.785398000,0.000000000,0.000000000,0.000000,-0.000002,-0.000001,0.0000,0.0000,0.0000,4062854.1603,-254324.6789,4893710.8117,-4.9986,7.3978,4.5040,0.000,0.000,0.000,0.88023759858,-0.06251597062,50.0000,2.097
141000,4062849.1617,-254317.2811,4893715.3157,-4.9986,7.3978,4.5040,0.000,0.000,0.000,0.000,0.000,0.000,0.88023870803,-0.06251423360,50.0000,0.785398000,0.000000000,0.000000000,0.000000,-0.000002,-0.000001,0.0000,0.0000,0.0000,4062849.1617,-254317.2811,4893715.3157,-4.9986,7.3978,4.5040,0.000,0.000,0.000,0.88023870803,-0.06251423360,50.0000,2.097
142000,4062844.1631,-254309.8833,4893719.8198,-4.9986,7.3978,4.5040,0.000,0.000,0.000,0.000,0.000,0.000,0.88023981749,-0.06251249658,50.0000,0.785398000,0.000000000,0.000000000,0.000000,-0.000002,-0.000001,0.0000,0.0000,0.0000,4062844.1631,-254309.8833,4893719.8198,-4.9986,7.3978,4.5040,0.000,0.000,0.000,0.88023981749,-0.06251249658,50.0000,2.097
143000,4062839.1644,-254302.4855,4893724.3238,-4.9987,7.3978,4.5040,0.000,0.000,0.000,0.000,0.000,0.000,0.88024092694,-0.06251075955,50.0000,0.785398000,0.000000000,0.000000000,0.000000,-0.000002,-0.000001,0.0000,0.0000,0.0000,4062839.1644,-254302.4855,4893724.3238,-4.9987,7.3978,4.5040,0.000,0.000,0.000,0.88024092694,-0.06251075955,50.0000,2.097
144000,4062834.1657,-254295.0877,4893728.8278,-4.9987,7.3978,4.5040,0.000,0.000,0.000,0.000,0.000,0.000,0.88024203639,-0.06250902253,50.0000,0.785398000,0.000000000,0.000000000,0.000000,-0.000002,-0.000001,0.0000,0.0000,0.0000,4062834.1657,-254295.0877,4893728.8278,-4.9987,7.3978,4.5040,0.000,0.000,0.000,0.88024203639,-0.06250902253,50.0000,2.095
145000,4062829.1671,-254287.6899,4893733.3318,-4.9987,7.3978,4.5040,0.000,0.000,0.000,0.000,0.000,0.000,0.88024314584,-0.06250728550,50.0000,0.785398000,0.000000000,0.000000000,0.000000,-0.000002,-0.000001,0.0000,0.0000,0.0000,4062829.1671,-254287.6899,4893733.3318,-4.9987,7.3978,4.5040,0.000,0.000,0.000,0.88024314584,-0.06250728550,50.0000,2.095
146000,4062824.1684,-254280.2922,4893737.8358,-4.9987,7.3978,4.5040,0.000,0.000,0.000,0.000,0.000,0.000,0.88024425529,-0.06250554846,50.0000,0.785398000,0.000000000,0.000000000,0.000000,-0.000002,-0.000001,0.0000,0.0000,0.0000,4062824.1684,-254280.2922,4893737.8358,-4.9987,7.3978,4.5040,0.000,0.000,0.000,0.88024425529,-0.06250554846,50.0000,2.095
147000,4062819.1696,-254272.8944,4893742.3399,-4.9987,7.3977,4.5040,0.000,0.000,0.000,0.000,0.000,0.000,0.88024536474,-0.06250381143,50.0000,0.785398000,0.000000000,0.000000000,0.000000,-0.000002,-0.000001,0.0000,0.0000,0.0000,4062819.1696,-254272.8944,4893742.3399,-4.9987,7.3977,4.5040,0.000,0.000,0.000,0.88024536474,-0.06250381143,50.0000,2.095
148000,4062814.1709,-254265.4967,4893746.8439,-4.9987,7.3977,4.5040,0.000,0.000,0.000,0.000,0.000,0.000,0.88024647419,-0.06250207439,50.0000,0.785398000,0.000000000,0.000000000,0.000000,-0.000002,-0.000001,0.0000,0.0000,0.0000,4062814.1709,-254265.4967,4893746.8439,-4.9987,7.3977,4.5040,0.000,0.000,0.000,0.88024647419,-0.06250207439,50.0000,2.095
149000,4062809.1721,-254258.0989,4893751.3478,-4.9988,7.3977,4.5040,0.000,0.000,0.000,0.000,0.000,0.000,0.88024758364,-0.06250033736,50.0000,0.785398000,0.000000000,0.000000000,0.000000,-0.000002,-0.000001,0.0000,0.0000,0.0000,4062809.1721,-254258.0989,4893751.3478,-4.9988,7.3977,4.5040,0.000,0.000,0.000,0.88024758364,-0.06250033736,50.0000,2.095
150000,4062804.1734,-254250.7012,4893755.8518,-4.9988,7.3977,4.5040,0.000,0.000,0.000,0.000,0.000,0.000,0.88024869309,-0.06249860032,50.0000,0.785398000,0.000000000,0.000000000,0.000000,-0.000002,-0.000001,0.0000,0.0000,0.0000,4062804.1734,-254250.7012,4893755.8518,-4.9988,7.3977,4.5040,0.000,0.000,0.000,0.88024869309,-0.06249860032,50.0000,2.094
151000,4062799.1746,-254243.3035,4893760.3558,-4.9988,7.3977,4.5040,0.000,0.000,0.000,0.000,0.000,0.000,0.88024980254,-0.06249686327,50.0000,0.785398000,0.000000000,0.000000000,0.000000,-0.000002,-0.000001,0.0000,0.0000,0.0000,4062799.1746,-254243.3035,4893760.3558,-4.9988,7.3977,4.5040,0.000,0.000,0.000,0.88024980254,-0.06249686327,50.0000,2.094
152000,4062794.1758,-254235.9058,4893764.8598,-4.9988,7.3977,4.5040,0.000,0.000,0.000,0.000,0.000,0.000,0.88025091200,-0.06249512623,50.0000,0.785398000,0.000000000,0.000000000,0.000000,-0.000002,-0.000001,0.0000,0.0000,0.0000,4062794.1758,-254235.9058,4893764.8598,-4.9988,7.3977,4.5040,0.000,0.000,0.000,0.88025091200,-0.06249512623,50.0000,2.094
153000,4062789.1770,-254228.5081,4893769.3638,-4.9988,7.3977,4.5040,0.000,0.000,0.000,0.000,0.000,0.000,0.88025202145,-0.06249338918,50.0000,0.785398000,0.000000000,0.000000000,0.000000,-0.000002,-0.000001,0.0000,0.0000,0.0000,4062789.1770,-254228.5081,4893769.3638,-4.9988,7.3977,4.5040,0.000,0.000,0.000,0.88025202145,-0.06249338918,50.0000,2.094
154000,4062784.1781,-254221.1104,4893773.8677,-4.9989,7.3977,4.5040,0.000,0.000,0.000,0.000,0.000,0.000,0.88025313090,-0.06249165213,50.0000,0.785398000,0.000000000,0.000000000,0.000000,-0.000002,-0.000001,0.0000,0.0000,0.0000,4062784.1781,-254221.1104,4893773.8677,-4.9989,7.3977,4.5040,0.000,0.000,0.000,0.88025313090,-0.06249165213,50.0000,2.094
155000,4062779.1792,-254213.7127,4893778.3717,-4.9989,7.3977,4.5040,0.000,0.000,0.000,0.000,0.000,0.000,0.88025424035,-0.06248991508,50.0000,0.785398000,0.000000000,0.000000000,0.000000,-0.000002,-0.000001,0.0000,0.0000,0.0000,4062779.1792,-254213.7127,4893778.3717,-4.9989,7.3977,4.5040,0.000,0.000,0.000,0.88025424035,-0.06248991508,50.0000,2.094
156000,4062774.1804,-254206.3150,4893782.8756,-4.9989,7.3977,4.5039,0.000,0.000,0.000,0.000,0.000,0.000,0.88025534980,-0.06248817802,50.0000,0.785398000,0.000000000,0.000000000,0.000000,-0.000002,-0.000001,0.0000,0.0000,0.0000,4062774.1804,-254206.3150,4893782.8756,-4.9989,7.3977,4.5039,0.000,0.000,0.000,0.88025534980,-0.06248817802,50.0000,2.093
157000,4062769.1815,-254198.9173,4893787.3796,-4.9989,7.3977,4.5039,0.000,0.000,0.000,0.000,0.000,0.000,0.88025645925,-0.06248644097,50.0000,0.785398000,0.000000000,0.000000000,0.000000,-0.000002,-0.000001,0.0000,0.0000,0.0000,4062769.1815,-254198.9173,4893787.3796,-4.9989,7.3977,4.5039,0.000,0.000,0.000,0.88025645925,-0.06248644097,50.0000,2.093
158000,4062764.1826,-254191.5197,4893791.8835,-4.9989,7.3977,4.5039,0.000,0.000,0.000,0.000,0.000,0.000,0.88025756870,-0.06248470391,50.0000,0.785398000,0.000000000,0.000000000,0.000000,-0.000002,-0.000001,0.0000,0.0000,0.0000,4062764.1826,-254191.5197,4893791.8835,-4.9989,7.3977,4.5039,0.000,0.000,0.000,0.88025756870,-0.06248470391,50.0000,2.093
159000,4062759.1836,-254184.1220,4893796.3874,-4.9989,7.3976,4.5039,0.000,0.000,0.000,0.000,0.000,0.000,0.88025867815,-0.06248296684,50.0000,0.785398000,0.000000000,0.000000000,0.000000,-0.000002,-0.000001,0.0000,0.0000,0.0000,4062759.1836,-254184.1220,4893796.3874,-4.9989,7.3976,4.5039,0.000,0.000,0.000,0.88025867815,-0.06248296684,50.0000,2.093
160000,4062754.1847,-254176.7244,4893800.8914,-4.9990,7.3976,4.5039,0.000,0.000,0.000,0.000,0.000,0.000,0.88025978760,-0.06248122978,50.0000,0.785398000,0.000000000,0.000000000,0.000000,-0.000002,-0.000001,0.0000,0.0000,0.0000,4062754.1847,-254176.7244,4893800.8914,-4.9990,7.3976,4.5039,0.000,0.000,0.000,0.88025978760,-0.06248122978,50.0000,2.093
161000,4062749.1857,-254169.3268,4893805.3953,-4.9990,7.3976,4.5039,0.000,0.000,0.000,0.000,0.000,0.000,0.88026089705,-0.06247949271,50.0000,0.785398000,0.000000000,0.000000000,0.000000,-0.000002,-0.000001,0.0000,0.0000,0.0000,4062749.1857,-254169.3268,4893805.3953,-4.9990,7.3976,4.5039,0.000,0.000,0.000,0.88026089705,-0.06247949271,50.0000,2.093
162000,4062744.1867,-254161.9291,4893809.8992,-4.9990,7.3976,4.5039,0.000,0.000,0.000,0.000,0.000,0.000,0.88026200650,-0.06247775565,50.0000,0.785398000,0.000000000,0.000000000,0.000000,-0.000002,-0.000001,0.0000,0.0000,0.0000,4062744.1867,-254161.9291,4893809.8992,-4.9990,7.3976,4.5039,0.000,0.000,0.000,0.88026200650,-0.06247775565,50.0000,2.092
163000,4062739.1877,-254154.5315,4893814.4031,-4.9990,7.3976,4.5039,0.000,0.000,0.000,0.000,0.000,0.000,0.88026311595,-0.06247601857,50.0000,0.785398000,0.000000000,0.000000000,0.000000,-0.000002,-0.000001,0.0000,0.0000,0.0000,4062739.1877,-254154.5315,4893814.4031,-4.9990,7.3976,4.5039,0.000,0.000,0.000,0.88026311595,-0.06247601857,50.0000,2.092
164000,4062734.1887,-254147.1339,4893818.9070,-4.9990,7.3976,4.5039,0.000,0.000,0.000,0.000,0.000,0.000,0.88026422541,-0.06247428150,50.0000,0.785398000,0.000000000,0.000000000,0.000000,-0.000002,-0.000001,0.0000,0.0000,0.0000,4062734.1887,-254147.1339,4893818.9070,-4.9990,7.3976,4.5039,0.000,0.000,0.000,0.88026422541,-0.06247428150,50.0000,2.092
165000,4062729.1897,-254139.7363,4893823.4109,-4.9990,7.3976,4.5039,0.000,0.000,0.000,0.000,0.000,0.000,0.88026533486,-0.06247254443,50.0000,0.785398000,0.000000000,0.000000000,0.000000,-0.000002,-0.000001,0.0000,0.0000,0.0000,4062729.1897,-254139.7363,4893823.4109,-4.9990,7.3976,4.5039,0.000,0.000,0.000,0.88026533486,-0.06247254443,50.0000,2.092
166000,4062724.1906,-254132.3387,4893827.9148,-4.9991,7.3976,4.5039,0.000,0.000,0.000,0.000,0.000,0.000,0.88026644431,-0.06247080735,50.0000,0.785398000,0.000000000,0.000000000,0.000000,-0.000002,-0.000001,0.0000,0.0000,0.0000,4062724.1906,-254132.3387,4893827.9148,-4.9991,7.3976,4.5039,0.000,0.000,0.000,0.88026644431,-0.06247080735,50.0000,2.092
167000,4062719.1915,-254124.9411,4893832.4187,-4.9991,7.3976,4.5039,0.000,0.000,0.000,0.000,0.000,0.000,0.88026755376,-0.06246907027,50.0000,0.785398000,0.000000000,0.000000000,0.000000,-0.000002,-0.000001,0.0000,0.0000,0.0000,4062719.1915,-254124.9411,4893832.4187,-4.9991,7.3976,4.5039,0.000,0.000,0.000,0.88026755376,-0.06246907027,50.0000,2.092
168000,4062714.1924,-254117.5435,4893836.9226,-4.9991,7.3976,4.5039,0.000,0.000,0.000,0.000,0.000,0.000,0.88026866321,-0.06246733318,50.0000,0.785398000,0.000000000,0.000000000,0.000000,-0.000002,-0.000001,0.0000,0.0000,0.0000,4062714.1924,-254117.5435,4893836.9226,-4.9991,7.3976,4.5039,0.000,0.000,0.000,0.88026866321,-0.06246733318,50.0000,2.091
169000,4062709.1933,-254110.1460,4893841.4264,-4.9991,7.3976,4.5039,0.000,0.000,0.000,0.000,0.000,0.000,0.88026977266,-0.06246559610,50.0000,0.785398000,0.000000000,0.000000000,0.000000,-0.000002,-0.000001,0.0000,0.0000,0.0000,4062709.1933,-254110.1460,4893841.4264,-4.9991,7.3976,4.5039,0.000,0.000,0.000,0.88026977266,-0.06246559610,50.0000,2.091
170000,4062704.1942,-254102.7484,4893845.9303,-4.9991,7.3976,4.5039,0.000,0.000,0.000,0.000,0.000,0.000,0.88027088211,-0.06246385901,50.0000,0.785398000,0.000000000,0.000000000,0.000000,-0.000002,-0.000001,0.0000,0.0000,0.0000,4062704.1942,-254102.7484,4893845.9303,-4.9991,7.3976,4.5039,0.000,0.000,0.000,0.88027088211,-0.06246385901,50.0000,2.091
171000,4062699.1950,-254095.3509,4893850.4342,-4.9992,7.3975,4.5039,0.000,0.000,0.000,0.000,0.000,0.000,0.88027199156,-0.06246212192,50.0000,0.785398000,0.000000000,0.000000000,0.000000,-0.000002,-0.000001,0.0000,0.0000,0.0000,4062699.1950,-254095.3509,4893850.4342,-4.9992,7.3975,4.5039,0.000,0.000,0.000,0.88027199156,-0.06246212192,50.0000,2.091
172000,4062694.1959,-254087.9533,4893854.9380,-4.9992,7.3975,4.5039,0.000,0.000,0.000,0.000,0.000,0.000,0.88027310101,-0.06246038483,50.0000,0.785398000,0.000000000,0.000000000,0.000000,-0.000002,-0.000001,0.0000,0.0000,0.0000,4062694.1959,-254087.9533,4893854.9380,-4.9992,7.3975,4.5039,0.000,0.000,0.000,0.88027310101,-0.06246038483,50.0000,2.091
173000,4062689.1967,-254080.5558,4893859.4419,-4.9992,7.3975,4.5038,0.000,0.000,0.000,0.000,0.000,0.000,0.88027421046,-0.06245864774,50.0000,0.785398000,0.000000000,0.000000000,0.000000,-0.000002,-0.000001,0.0000,0.0000,0.0000,4062689.1967,-254080.5558,4893859.4419,-4.9992,7.3975,4.5038,0.000,0.000,0.000,0.88027421046,-0.06245864774,50.0000,2.091
174000,4062684.1975,-254073.1582,4893863.9457,-4.9992,7.3975,4.5038,0.000,0.000,0.000,0.000,0.000,0.000,0.88027531991,-0.06245691064,50.0000,0.785398000,0.000000000,0.000000000,0.000000,-0.000002,-0.000001,0.0000,0.0000,0.0000,4062684.1975,-254073.1582,4893863.9457,-4.9992,7.3975,4.5038,0.000,0.000,0.000,0.88027531991,-0.06245691064,50.0000,2.090
175000,4062679.1983,-254065.7607,4893868.4495,-4.9992,7.3975,4.5038,0.000,0.000,0.000,0.000,0.000,0.000,0.88027642936,-0.06245517354,50.0000,0.785398000,0.000000000,0.000000000,0.000000,-0.000002,-0.000001,0.0000,0.0000,0.0000,4062679.1983,-254065.7607,4893868.4495,-4.9992,7.3975,4.5038,0.000,0.000,0.000,0.88027642936,-0.06245517354,50.0000,2.090
176000,4062674.1990,-254058.3632,4893872.9534,-4.9992,7.3975,4.5038,0.000,0.000,0.000,0.000,0.000,0.000,0.88027753881,-0.06245343644,50.0000,0.785398000,0.000000000,0.000000000,0.000000,-0.000002,-0.000001,0.0000,0.0000,0.0000,4062674.1990,-254058.3632,4893872.9534,-4.9992,7.3975,4.5038,0.000,0.000,0.000,0.88027753881,-0.06245343644,50.0000,2.090
177000,4062669.1998,-254050.9657,4893877.4572,-4.9993,7.3975,4.5038,0.000,0.000,0.000,0.000,0.000,0.000,0.88027864826,-0.06245169934,50.0000,0.785398000,0.000000000,0.000000000,0.000000,-0.000002,-0.000001,0.0000,0.0000,0.0000,4062669.1998,-254050.9657,4893877.4572,-4.9993,7.3975,4.5038,0.000,0.000,0.000,0.88027864826,-0.06245169934,50.0000,2.090
178000,4062664.2005,-254043.5682,4893881.9610,-4.9993,7.3975,4.5038,0.000,0.000,0.000,0.000,0.000,0.000,0.88027975771,-0.06244996223,50.0000,0.785398000,0.000000000,0.000000000,0.000000,-0.000002,-0.000001,0.0000,0.0000,0.0000,4062664.2005,-254043.5682,4893881.9610,-4.9993,7.3975,4.5038,0.000,0.000,0.000,0.88027975771,-0.06244996223,50.0000,2.090
179000,4062659.2012,-254036.1707,4893886.4648,-4.9993,7.3975,4.5038,0.000,0.000,0.000,0.000,0.000,0.000,0.88028086717,-0.06244822512,50.0000,0.785398000,0.000000000,0.000000000,0.000000,-0.000002,-0.000001,0.0000,0.0000,0.0000,4062659.2012,-254036.1707,4893886.4648,-4.9993,7.3975,4.5038,0.000,0.000,0.000,0.88028086717,-0.06244822512,50.0000,2.090
180000,4062654.2019,-254028.7733,4893890.9686,-4.9993,7.3975,4.5038,0.000,0.000,0.000,0.000,0.000,0.000,0.88028197662,-0.06244648801,50.0000,0.785398000,0.000000000,0.000000000,0.000000,-0.000002,-0.000001,0.0000,0.0000,0.0000,4062654.2019,-254028.7733,4893890.9686,-4.9993,7.3975,4.5038,0.000,0.000,0.000,0.88028197662,-0.06244648801,50.0000,2.089
181000,4062649.2026,-254021.3758,4893895.4724,-4.9993,7.3975,4.5038,0.000,0.000,0.000,0.000,0.000,0.000,0.88028308607,-0.06244475090,50.0000,0.785398000,0.000000000,0.000000000,0.000000,-0.000002,-0.000001,0.0000,0.0000,0.0000,4062649.2026,-254021.3758,4893895.4724,-4.9993,7.3975,4.5038,0.000,0.000,0.000,0.88028308607,-0.06244475090,50.0000,2.089
182000,4062644.2032,-254013.9783,4893899.9762,-4.9994,7.3975,4.5038,0.000,0.000,0.000,0.000,0.000,0.000,0.88028419552,-0.06244301378,50.0000,0.785398000,0.000000000,0.000000000,0.000000,-0.000002,-0.000001,0.0000,0.0000,0.0000,4062644.2032,-254013.9783,4893899.9762,-4.9994,7.3975,4.5038,0.000,0.000,0.000,0.88028419552,-0.06244301378,50.0000,2.089
183000,4062639.2039,-254006.5809,4893904.4800,-4.9994,7.3974,4.5038,0.000,0.000,0.000,0.000,0.000,0.000,0.88028530497,-0.06244127667,50.0000,0.785398000,0.000000000,0.000000000,0.000000,-0.000002,-0.000001,0.0000,0.0000,0.0000,4062639.2039,-254006.5809,4893904.4800,-4.9994,7.3974,4.5038,0.000,0.000,0.000,0.88028530497,-0.06244127667,50.0000,2.089
184000,4062634.2045,-253999.1834,4893908.9838,-4.9994,7.3974,4.5038,0.000,0.000,0.000,0.000,0.000,0.000,0.88028641442,-0.06243953955,50.0000,0.785398000,0.000000000,0.000000000,0.000000,-0.000002,-0.000001,0.0000,0.0000,0.0000,4062634.2045,-253999.1834,4893908.9838,-4.9994,7.3974,4.5038,0.000,0.000,0.000,0.88028641442,-0.06243953955,50.0000,2.089
185000,4062629.2051,-253991.7860,4893913.4876,-4.9994,7.3974,4.5038,0.000,0.000,0.000,0.000,0.000,0.000,0.88028752387,-0.06243780242,50.0000,0.785398000,0.000000000,0.000000000,0.000000,-0.000002,-0.000001,0.0000,0.0000,0.0000,4062629.2051,-253991.7860,4893913.4876,-4.9994,7.3974,4.5038,0.000,0.000,0.000,0.88028752387,-0.06243780242,50.0000,2.089
186000,4062624.2057,-253984.3886,4893917.9913,-4.9994,7.3974,4.5038,0.000,0.000,0.000,0.000,0.000,0.000,0.88028863332,-0.06243606530,50.0000,0.785398000,0.000000000,0.000000000,0.000000,-0.000002,-0.000001,0.0000,0.0000,0.0000,4062624.2057,-253984.3886,4893917.9913,-4.9994,7.3974,4.5038,0.000,0.000,0.000,0.88028863332,-0.06243606530,50.0000,2.087
187000,4062619.2063,-253976.9912,4893922.4951,-4.9994,7.3974,4.5038,0.000,0.000,0.000,0.000,0.000,0.000,0.88028974277,-0.06243432817,50.0000,0.785398000,0.000000000,0.000000000,0.000000,-0.000002,-0.000001,0.0000,0.0000,0.0000,4062619.2063,-253976.9912,4893922.4951,-4.9994,7.3974,4.5038,0.000,0.000,0.000,0.88028974277,-0.06243432817,50.0000,2.087
188000,4062614.2068,-253969.5938,4893926.9989,-4.9995,7.3974,4.5038,0.000,0.000,0.000,0.000,0.000,0.000,0.88029085222,-0.06243259104,50.0000,0.785398000,0.000000000,0.000000000,0.000000,-0.000002,-0.000001,0.0000,0.0000,0.0000,4062614.2068,-253969.5938,4893926.9989,-4.9995,7.3974,4.5038,0.000,0.000,0.000,0.88029085222,-0.06243259104,50.0000,2.087
189000,4062609.2073,-253962.1964,4893931.5026,-4.9995,7.3974,4.5037,0.000,0.000,0.000,0.000,0.000,0.000,0.88029196167,-0.06243085391,50.0000,0.785398000,0.000000000,0.000000000,0.000000,-0.000002,-0.000001,0.0000,0.0000,0.0000,4062609.2073,-253962.1964,4893931.5026,-4.9995,7.3974,4.5037,0.000,0.000,0.000,0.88029196167,-0.06243085391,50.0000,2.087
190000,4062604.2079,-253954.7990,4893936.0064,-4.9995,7.3974,4.5037,0.000,0.000,0.000,0.000,0.000,0.000,0.88029307112,-0.06242911678,50.0000,0.785398000,0.000000000,0.000000000,0.000000,-0.000002,-0.000001,0.0000,0.0000,0.0000,4062604.2079,-253954.7990,4893936.0064,-4.9995,7.3974,4.5037,0.000,0.000,0.000,0.88029307112,-0.06242911678,50.0000,2.087
191000,4062599.2084,-253947.4016,4893940.5101,-4.9995,7.3974,4.5037,0.000,0.000,0.000,0.000,0.000,0.000,0.88029418057,-0.06242737964,50.0000,0.785398000,0.000000000,0.000000000,0.000000,-0.000002,-0.000001,0.0000,0.0000,0.0000,4062599.2084,-253947.4016,4893940.5101,-4.9995,7.3974,4.5037,0.000,0.000,0.000,0.88029418057,-0.06242737964,50.0000,2.087
192000,4062594.2088,-253940.0042,4893945.0138,-4.9995,7.3974,4.5037,0.000,0.000,0.000,0.000,0.000,0.000,0.88029529002,-0.06242564250,50.0000,0.785398000,0.000000000,0.000000000,0.000000,-0.000002,-0.000001,0.0000,0.0000,0.0000,4062594.2088,-253940.0042,4893945.0138,-4.9995,7.3974,4.5037,0.000,0.000,0.000,0.88029529002,-0.06242564250,50.0000,2.086
193000,4062589.2093,-253932.6068,4893949.5176,-4.9995,7.3974,4.5037,0.000,0.000,0.000,0.000,0.000,0.000,0.88029639947,-0.06242390536,50.0000,0.785398000,0.000000000,0.000000000,0.000000,-0.000002,-0.000001,0.0000,0.0000,0.0000,4062589.2093,-253932.6068,4893949.5176,-4.9995,7.3974,4.5037,0.000,0.000,0.000,0.88029639947,-0.06242390536,50.0000,2.086
194000,4062584.2097,-253925.2095,4893954.0213,-4.9996,7.3974,4.5037,0.000,0.000,0.000,0.000,0.000,0.000,0.88029750892,-0.06242216822,50.0000,0.785398000,0.000000000,0.000000000,0.000000,-0.000002,-0.000001,0.0000,0.0000,0.0000,4062584.2097,-253925.2095,4893954.0213,-4.9996,7.3974,4.5037,0.000,0.000,0.000,0.88029750892,-0.06242216822,50.0000,2.086
195000,4062579.2102,-253917.8121,4893958.5250,-4.9996,7.3973,4.5037,0.000,0.000,0.000,0.000,0.000,0.000,0.88029861837,-0.06242043107,50.0000,0.785398000,0.000000000,0.000000000,0.000000,-0.000002,-0.000001,0.0000,0.0000,0.0000,4062579.2102,-253917.8121,4893958.5250,-4.9996,7.3973,4.5037,0.000,0.000,0.000,0.88029861837,-0.06242043107,50.0000,2.086
196000,4062574.2106,-253910.4148,4893963.0287,-4.9996,7.3973,4.5037,0.000,0.000,0.000,0.000,0.000,0.000,0.88029972782,-0.06241869393,50.0000,0.785398000,0.000000000,0.000000000,0.000000,-0.000002,-0.000001,0.0000,0.0000,0.0000,4062574.2106,-253910.4148,4893963.0287,-4.9996,7.3973,4.5037,0.000,0.000,0.000,0.88029972782,-0.06241869393,50.0000,2.086
197000,4062569.2110,-253903.0174,4893967.5324,-4.9996,7.3973,4.5037,0.000,0.000,0.000,0.000,0.000,0.000,0.88030083727,-0.06241695678,50.0000,0.785398000,0.000000000,0.000000000,0.000000,-0.000002,-0.000001,0.0000,0.0000,0.0000,4062569.2110,-253903.0174,4893967.5324,-4.9996,7.3973,4.5037,0.000,0.000,0.000,0.88030083727,-0.06241695678,50.0000,2.086
198000,4062564.2113,-253895.6201,4893972.0361,-4.9996,7.3973,4.5037,0.000,0.000,0.000,0.000,0.000,0.000,0.88030194672,-0.06241521962,50.0000,0.785398000,0.000000000,0.000000000,0.000000,-0.000002,-0.000001,0.0000,0.0000,0.0000,4062564.2113,-253895.6201,4893972.0361,-4.9996,7.3973,4.5037,0.000,0.000,0.000,0.88030194672,-0.06241521962,50.0000,2.085
199000,4062559.2117,-253888.2228,4893976.5398,-4.9997,7.3973,4.5037,0.000,0.000,0.000,0.000,0.000,0.000,0.88030305617,-0.06241348247,50.0000,0.785398000,0.000000000,0.000000000,0.000000,-0.000002,-0.000001,0.0000,0.0000,0.0000,4062559.2117,-253888.2228,4893976.5398,-4.9997,7.3973,4.5037,0.000,0.000,0.000,0.88030305617,-0.06241348247,50.0000,2.085
200000,4062554.2120,-253880.8255,4893981.0435,-4.9997,7.3973,4.5037,0.000,0.000,0.000,0.000,0.000,0.000,0.88030416562,-0.06241174531,50.0000,0.785398000,0.000000000,0.000000000,0.000000,-0.000002,-0.000001,0.0000,0.0000,0.0000,4062554.2120,-253880.8255,4893981.0435,-4.9997,7.3973,4.5037,0.000,0.000,0.000,0.88030416562,-0.06241174531,50.0000,2.085
201000,4062549.2123,-253873.4282,4893985.5472,-4.9997,7.3973,4.5037,0.000,0.000,0.000,0.000,0.000,0.000,0.88030527507,-0.06241000815,50.0000,0.785398000,0.000000000,0.000000000,0.000000,-0.000002,-0.000001,0.0000,0.0000,0.0000,4062549.2123,-253873.4282,4893985.5472,-4.9997,7.3973,4.5037,0.000,0.000,0.000,0.88030527507,-0.06241000815,50.0000,2.085
202000,4062544.2126,-253866.0309,4893990.0508,-4.9997,7.3973,4.5037,0.000,0.000,0.000,0.000,0.000,0.000,0.88030638452,-0.06240827099,50.0000,0.785398000,0.000000000,0.000000000,0.000000,-0.000002,-0.000001,0.0000,0.0000,0.0000,4062544.2126,-253866.0309,4893990.0508,-4.9997,7.3973,4.5037,0.000,0.000,0.000,0.88030638452,-0.06240827099,50.0000,2.085
203000,4062539.2129,-253858.6336,4893994.5545,-4.9997,7.3973,4.5037,0.000,0.000,0.000,0.000,0.000,0.000,0.88030749398,-0.06240653383,50.0000,0.785398000,0.000000000,0.000000000,0.000000,-0.000002,-0.000001,0.0000,0.0000,0.0000,4062539.2129,-253858.6336,4893994.5545,-4.9997,7.3973,4.5037,0.000,0.000,0.000,0.88030749398,-0.06240653383,50.0000,2.085
204000,4062534.2132,-253851.2363,4893999.0582,-4.9997,7.3973,4.5037,0.000,0.000,0.000,0.000,0.000,0.000,0.88030860343,-0.06240479666,50.0000,0.785398000,0.000000000,0.000000000,0.000000,-0.000002,-0.000001,0.0000,0.0000,0.0000,4062534.2132,-253851.2363,4893999.0582,-4.9997,7.3973,4.5037,0.000,0.000,0.000,0.88030860343,-0.06240479666,50.0000,2.084
205000,4062529.2134,-253843.8391,4894003.5618,-4.9998,7.3973,4.5037,0.000,0.000,0.000,0.000,0.000,0.000,0.88030971288,-0.06240305949,50.0000,0.785398000,0.000000000,0.000000000,0.000000,-0.000002,-0.000001,0.0000,0.0000,0.0000,4062529.2134,-253843.8391,4894003.5618,-4.9998,7.3973,4.5037,0.000,0.000,0.000,0.88030971288,-0.06240305949,50.0000,2.084
206000,4062524.2137,-253836.4418,4894008.0655,-4.9998,7.3973,4.5036,0.000,0.000,0.000,0.000,0.000,0.000,0.88031082233,-0.06240132232,50.0000,0.785398000,0.000000000,0.000000000,0.000000,-0.000002,-0.000001,0.0000,0.0000,0.0000,4062524.2137,-253836.4418,4894008.0655,-4.9998,7.3973,4.5036,0.000,0.000,0.000,0.88031082233,-0.06240132232,50.0000,2.084
207000,4062519.2139,-253829.0446,4894012.5691,-4.9998,7.3972,4.5036,0.000,0.000,0.000,0.000,0.000,0.000,0.88031193178,-0.06239958515,50.0000,0.785398000,0.000000000,0.000000000,0.000000,-0.000002,-0.000001,0.0000,0.0000,0.0000,4062519.2139,-253829.0446,4894012.5691,-4.9998,7.3972,4.5036,0.000,0.000,0.000,0.88031193178,-0.06239958515,50.0000,2.084
208000,4062514.2141,-253821.6473,4894017.0727,-4.9998,7.3972,4.5036,0.000,0.000,0.000,0.000,0.000,0.000,0.88031304123,-0.06239784797,50.0000,0.785398000,0.000000000,0.000000000,0.000000,-0.000002,-0.000001,0.0000,0.0000,0.0000,4062514.2141,-253821.6473,4894017.0727,-4.9998,7.3972,4.5036,0.000,0.000,0.000,0.88031304123,-0.06239784797,50.0000,2.084
209000,4062509.2142,-253814.2501,4894021.5764,-4.9998,7.3972,4.5036,0.000,0.000,0.000,0.000,0.000,0.000,0.88031415068,-0.06239611079,50.0000,0.785398000,0.000000000,0.000000000,0.000000,-0.000002,-0.000001,0.0000,0.0000,0.0000,4062509.2142,-253814.2501,4894021.5764,-4.9998,7.3972,4.5036,0.000,0.000,0.000,0.88031415068,-0.06239611079,50.0000,2.084
210000,4062504.2144,-253806.8529,4894026.0800,-4.9999,7.3972,4.5036,0.000,0.000,0.000,0.000,0.000,0.000,0.88031526013,-0.06239437361,50.0000,0.785398000,0.000000000,0.000000000,0.000000,-0.000002,-0.000001,0.0000,0.0000,0.0000,4062504.2144,-253806.8529,4894026.0800,-4.9999,7.3972,4.5036,0.000,0.000,0.000,0.88031526013,-0.06239437361,50.0000,2.083
211000,4062499.2145,-253799.4556,4894030.5836,-4.9999,7.3972,4.5036,0.000,0.000,0.000,0.000,0.000,0.000,0.88031636958,-0.06239263643,50.0000,0.785398000,0.000000000,0.000000000,0.000000,-0.000002,-0.000001,0.0000,0.0000,0.0000,4062499.2145,-253799.4556,4894030.5836,-4.9999,7.3972,4.5036,0.000,0.000,0.000,0.88031636958,-0.06239263643,50.0000,2.083
212000,4062494.2147,-253792.0584,4894035.0872,-4.9999,7.3972,4.5036,0.000,0.000,0.000,0.000,0.000,0.000,0.88031747903,-0.06239089925,50.0000,0.785398000,0.000000000,0.000000000,0.000000,-0.000002,-0.000001,0.0000,0.0000,0.0000,4062494.2147,-253792.0584,4894035.0872,-4.9999,7.3972,4.5036,0.000,0.000,0.000,0.88031747903,-0.06239089925,50.0000,2.083
213000,4062489.2148,-253784.6612,4894039.5908,-4.9999,7.3972,4.5036,0.000,0.000,0.000,0.000,0.000,0.000,0.88031858848,-0.06238916206,50.0000,0.785398000,0.000000000,0.000000000,0.000000,-0.000002,-0.000001,0.0000,0.0000,0.0000,4062489.2148,-253784.6612,4894039.5908,-4.9999,7.3972,4.5036,0.000,0.000,0.000,0.88031858848,-0.06238916206,50.0000,2.083
214000,4062484.2148,-253777.2640,4894044.0944,-4.9999,7.3972,4.5036,0.000,0.000,0.000,0.000,0.000,0.000,0.88031969793,-0.06238742487,50.0000,0.785398000,0.000000000,0.000000000,0.000000,-0.000002,-0.000001,0.0000,0.0000,0.0000,4062484.2148,-253777.2640,4894044.0944,-4.9999,7.3972,4.5036,0.000,0.000,0.000,0.88031969793,-0.06238742487,50.0000,2.083
215000,4062479.2149,-253769.8669,4894048.5980,-4.9999,7.3972,4.5036,0.000,0.000,0.000,0.000,0.000,0.000,0.88032080738,-0.06238568768,50.0000,0.785398000,0.000000000,0.000000000,0.000000,-0.000002,-0.000001,0.0000,0.0000,0.0000,4062479.2149,-253769.8669,4894048.5980,-4.9999,7.3972,4.5036,0.000,0.000,0.000,0.88032080738,-0.06238568768,50.0000,2.083
216000,4062474.2150,-253762.4697,4894053.1016,-5.0000,7.3972,4.5036,0.000,0.000,0.000,0.000,0.000,0.000,0.88032191683,-0.06238395048,50.0000,0.785398000,0.000000000,0.000000000,0.000000,-0.000002,-0.000001,0.0000,0.0000,0.0000,4062474.2150,-253762.4697,4894053.1016,-5.0000,7.3972,4.5036,0.000,0.000,0.000,0.88032191683,-0.06238395048,50.0000,2.082
217000,4062469.2150,-253755.0725,4894057.6052,-5.0000,7.3972,4.5036,0.000,0.000,0.000,0.000,0.000,0.000,0.88032302628,-0.06238221329,50.0000,0.785398000,0.000000000,0.000000000,0.000000,-0.000002,-0.000001,0.0000,0.0000,0.0000,4062469.2150,-253755.0725,4894057.6052,-5.0000,7.3972,4.5036,0.000,0.000,0.000,0.88032302628,-0.06238221329,50.0000,2.082
218000,4062464.2150,-253747.6754,4894062.1088,-5.0000,7.3972,4.5036,0.000,0.000,0.000,0.000,0.000,0.000,0.88032413573,-0.06238047609,50.0000,0.785398000,0.000000000,0.000000000,0.000000,-0.000002,-0.000001,0.0000,0.0000,0.0000,4062464.2150,-253747.6754,4894062.1088,-5.0000,7.3972,4.5036,0.000,0.000,0.000,0.88032413573,-0.06238047609,50.0000,2.082
219000,4062459.2150,-253740.2782,4894066.6123,-5.0000,7.3971,4.5036,0.000,0.000,0.000,0.000,0.000,0.000,0.88032524518,-0.06237873889,50.0000,0.785398000,0.000000000,0.000000000,0.000000,-0.000002,-0.000001,0.0000,0.0000,0.0000,4062459.2150,-253740.2782,4894066.6123,-5.0000,7.3971,4.5036,0.000,0.000,0.000,0.88032524518,-0.06237873889,50.0000,2.082
220000,4062454.2150,-253732.8811,4894071.1159,-5.0000,7.3971,4.5036,0.000,0.000,0.000,0.000,0.000,0.000,0.88032635463,-0.06237700168,50.0000,0.785398000,0.000000000,0.000000000,0.000000,-0.000002,-0.000001,0.0000,0.0000,0.0000,4062454.2150,-253732.8811,4894071.1159,-5.0000,7.3971,4.5036,0.000,0.000,0.000,0.88032635463,-0.06237700168,50.0000,2.082
221000,4062449.2149,-253725.4839,4894075.6195,-5.0000,7.3971,4.5036,0.000,0.000,0.000,0.000,0.000,0.000,0.88032746408,-0.06237526448,50.0000,0.785398000,0.000000000,0.000000000,0.000000,-0.000002,-0.000001,0.0000,0.0000,0.0000,4062449.2149,-253725.4839,4894075.6195,-5.0000,7.3971,4.5036,0.000,0.000,0.000,0.88032746408,-0.06237526448,50.0000,2.082
222000,4062444.2149,-253718.0868,4894080.1230,-5.0001,7.3971,4.5035,0.000,0.000,0.000,0.000,0.000,0.000,0.88032857353,-0.06237352727,50.0000,0.785398000,0.000000000,0.000000000,0.000000,-0.000002,-0.000001,0.0000,0.0000,0.0000,4062444.2149,-253718.0868,4894080.1230,-5.0001,7.3971,4.5035,0.000,0.000,0.000,0.88032857353,-0.06237352727,50.0000,2.081
223000,4062439.2148,-253710.6897,4894084.6266,-5.0001,7.3971,4.5035,0.000,0.000,0.000,0.000,0.000,0.000,0.88032968298,-0.06237179006,50.0000,0.785398000,0.000000000,0.000000000,0.000000,-0.000002,-0.000001,0.0000,0.0000,0.0000,4062439.2148,-253710.6897,4894084.6266,-5.0001,7.3971,4.5035,0.000,0.000,0.000,0.88032968298,-0.06237179006,50.0000,2.081
224000,4062434.2147,-253703.2926,4894089.1301,-5.0001,7.3971,4.5035,0.000,0.000,0.000,0.000,0.000,0.000,0.88033079243,-0.06237005285,50.0000,0.785398000,0.000000000,0.000000000,0.000000,-0.000002,-0.000001,0.0000,0.0000,0.0000,4062434.2147,-253703.2926,4894089.1301,-5.0001,7.3971,4.5035,0.000,0.000,0.000,0.88033079243,-0.06237005285,50.0000,2.081
225000,4062429.2146,-253695.8955,4894093.6336,-5.0001,7.3971,4.5035,0.000,0.000,0.000,0.000,0.000,0.000,0.88033190188,-0.06236831563,50.0000,0.785398000,0.000000000,0.000000000,0.000000,-0.000002,-0.000001,0.0000,0.0000,0.0000,4062429.2146,-253695.8955,4894093.6336,-5.0001,7.3971,4.5035,0.000,0.000,0.000,0.88033190188,-0.06236831563,50.0000,2.081
226000,4062424.2145,-253688.4984,4894098.1372,-5.0001,7.3971,4.5035,0.000,0.000,0.000,0.000,0.000,0.000,0.88033301133,-0.06236657841,50.0000,0.785398000,0.000000000,0.000000000,0.000000,-0.000002,-0.000001,0.0000,0.0000,0.0000,4062424.2145,-253688.4984,4894098.1372,-5.0001,7.3971,4.5035,0.000,0.000,0.000,0.88033301133,-0.06236657841,50.0000,2.081
227000,4062419.2143,-253681.1013,4894102.6407,-5.0002,7.3971,4.5035,0.000,0.000,0.000,0.000,0.000,0.000,0.88033412078,-0.06236484119,50.0000,0.785398000,0.000000000,0.000000000,0.000000,-0.000002,-0.000001,0.0000,0.0000,0.0000,4062419.2143,-253681.1013,4894102.6407,-5.0002,7.3971,4.5035,0.000,0.000,0.000,0.88033412078,-0.06236484119,50.0000,2.081
228000,4062414.2142,-253673.7042,4894107.1442,-5.0002,7.3971,4.5035,0.000,0.000,0.000,0.000,0.000,0.000,0.88033523023,-0.06236310397,50.0000,0.785398000,0.000000000,0.000000000,0.000000,-0.000002,-0.000001,0.0000,0.0000,0.0000,4062414.2142,-253673.7042,4894107.1442,-5.0002,7.3971,4.5035,0.000,0.000,0.000,0.88033523023,-0.06236310397,50.0000,2.080
229000,4062409.2140,-253666.3072,4894111.6477,-5.0002,7.3971,4.5035,0.000,0.000,0.000,0.000,0.000,0.000,0.88033633968,-0.06236136675,50.0000,0.785398000,0.000000000,0.000000000,0.000000,-0.000002,-0.000001,0.0000,0.0000,0.0000,4062409.2140,-253666.3072,4894111.6477,-5.0002,7.3971,4.5035,0.000,0.000,0.000,0.88033633968,-0.06236136675,50.0000,2.080
230000,4062404.2138,-253658.9101,4894116.1512,-5.0002,7.3971,4.5035,0.000,0.000,0.000,0.000,0.000,0.000,0.88033744913,-0.06235962952,50.0000,0.785398000,0.000000000,0.000000000,0.000000,-0.000002,-0.000001,0.0000,0.0000,0.0000,4062404.2138,-253658.9101,4894116.1512,-5.0002,7.3971,4.5035,0.000,0.000,0.000,0.88033744913,-0.06235962952,50.0000,2.080
231000,4062399.2136,-253651.5131,4894120.6547,-5.0002,7.3970,4.5035,0.000,0.000,0.000,0.000,0.000,0.000,0.88033855858,-0.06235789229,50.0000,0.785398000,0.000000000,0.000000000,0.000000,-0.000002,-0.000001,0.0000,0.0000,0.0000,4062399.2136,-253651.5131,4894120.6547,-5.0002,7.3970,4.5035,0.000,0.000,0.000,0.88033855858,-0.06235789229,50.0000,2.080
232000,4062394.2133,-253644.1160,4894125.1582,-5.0002,7.3970,4.5035,0.000,0.000,0.000,0.000,0.000,0.000,0.88033966803,-0.06235615506,50.0000,0.785398000,0.000000000,0.000000000,0.000000,-0.000002,-0.000001,0.0000,0.0000,0.0000,4062394.2133,-253644.1160,4894125.1582,-5.0002,7.3970,4.5035,0.000,0.000,0.000,0.88033966803,-0.06235615506,50.0000,2.080
233000,4062389.2131,-253636.7190,4894129.6617,-5.0003,7.3970,4.5035,0.000,0.000,0.000,0.000,0.000,0.000,0.88034077748,-0.06235441782,50.0000,0.785398000,0.000000000,0.000000000,0.000000,-0.000002,-0.000001,0.0000,0.0000,0.0000,4062389.2131,-253636.7190,4894129.6617,-5.0003,7.3970,4.5035,0.000,0.000,0.000,0.88034077748,-0.06235441782,50.0000,2.080
234000,4062384.2128,-253629.3220,4894134.1652,-5.0003,7.3970,4.5035,0.000,0.000,0.000,0.000,0.000,0.000,0.88034188693,-0.06235268059,50.0000,0.785398000,0.000000000,0.000000000,0.000000,-0.000002,-0.000001,0.0000,0.0000,0.0000,4062384.2128,-253629.3220,4894134.1652,-5.0003,7.3970,4.5035,0.000,0.000,0.000,0.88034188693,-0.06235268059,50.0000,2.079
235000,4062379.2125,-253621.9250,4894138.6686,-5.0003,7.3970,4.5035,0.000,0.000,0.000,0.000,0.000,0.000,0.88034299638,-0.06235094335,50.0000,0.785398000,0.000000000,0.000000000,0.000000,-0.000002,-0.000001,0.0000,0.0000,0.0000,4062379.2125,-253621.9250,4894138.6686,-5.0003,7.3970,4.5035,0.000,0.000,0.000,0.88034299638,-0.06235094335,50.0000,2.079
236000,4062374.2122,-253614.5279,4894143.1721,-5.0003,7.3970,4.5035,0.000,0.000,0.000,0.000,0.000,0.000,0.88034410583,-0.06234920611,50.0000,0.785398000,0.000000000,0.000000000,0.000000,-0.000002,-0.000001,0.0000,0.0000,0.0000,4062374.2122,-253614.5279,4894143.1721,-5.0003,7.3970,4.5035,0.000,0.000,0.000,0.88034410583,-0.06234920611,50.0000,2.079
237000,4062369.2119,-253607.1309,4894147.6756,-5.0003,7.3970,4.5035,0.000,0.000,0.000,0.000,0.000,0.000,0.88034521528,-0.06234746887,50.0000,0.785398000,0.000000000,0.000000000,0.000000,-0.000002,-0.000001,0.0000,0.0000,0.0000,4062369.2119,-253607.1309,4894147.6756,-5.0003,7.3970,4.5035,0.000,0.000,0.000,0.88034521528,-0.06234746887,50.0000,2.079
238000,4062364.2116,-253599.7340,4894152.1790,-5.0004,7.3970,4.5035,0.000,0.000,0.000,0.000,0.000,0.000,0.88034632473,-0.06234573162,50.0000,0.785398000,0.000000000,0.000000000,0.000000,-0.000002,-0.000001,0.0000,0.0000,0.0000,4062364.2116,-253599.7340,4894152.1790,-5.0004,7.3970,4.5035,0.000,0.000,0.000,0.88034632473,-0.06234573162,50.0000,2.079
239000,4062359.2112,-253592.3370,4894156.6825,-5.0004,7.3970,4.5034,0.000,0.000,0.000,0.000,0.000,0.000,0.88034743418,-0.06234399437,50.0000,0.785398000,0.000000000,0.000000000,0.000000,-0.000002,-0.000001,0.0000,0.0000,0.0000,4062359.2112,-253592.3370,4894156.6825,-5.0004,7.3970,4.5034,0.000,0.000,0.000,0.88034743418,-0.06234399437,50.0000,2.079
240000,4062354.2108,-253584.9400,4894161.1859,-5.0004,7.3970,4.5034,0.000,0.000,0.000,0.000,0.000,0.000,0.88034854363,-0.06234225712,50.0000,0.785398000,0.000000000,0.000000000,0.000000,-0.000002,-0.000001,0.0000,0.0000,0.0000,4062354.2108,-253584.9400,4894161.1859,-5.0004,7.3970,4.5034,0.000,0.000,0.000,0.88034854363,-0.06234225712,50.0000,2.077
241000,4062349.2104,-253577.5430,4894165.6894,-5.0004,7.3970,4.5034,0.000,0.000,0.000,0.000,0.000,0.000,0.88034965308,-0.06234051987,50.0000,0.785398000,0.000000000,0.000000000,0.000000,-0.000002,-0.000001,0.0000,0.0000,0.0000,4062349.2104,-253577.5430,4894165.6894,-5.0004,7.3970,4.5034,0.000,0.000,0.000,0.88034965308,-0.06234051987,50.0000,2.077
242000,4062344.2100,-253570.1461,4894170.1928,-5.0004,7.3970,4.5034,0.000,0.000,0.000,0.000,0.000,0.000,0.88035076253,-0.06233878262,50.0000,0.785398000,0.000000000,0.000000000,0.000000,-0.000002,-0.000001,0.0000,0.0000,0.0000,4062344.2100,-253570.1461,4894170.1928,-5.0004,7.3970,4.5034,0.000,0.000,0.000,0.88035076253,-0.06233878262,50.0000,2.077
243000,4062339.2096,-253562.7491,4894174.6962,-5.0004,7.3969,4.5034,0.000,0.000,0.000,0.000,0.000,0.000,0.88035187198,-0.06233704536,50.0000,0.785398000,0.000000000,0.000000000,0.000000,-0.000002,-0.000001,0.0000,0.0000,0.0000,4062339.2096,-253562.7491,4894174.6962,-5.0004,7.3969,4.5034,0.000,0.000,0.000,0.88035187198,-0.06233704536,50.0000,2.077
244000,4062334.2091,-253555.3522,4894179.1996,-5.0005,7.3969,4.5034,0.000,0.000,0.000,0.000,0.000,0.000,0.88035298143,-0.06233530810,50.0000,0.785398000,0.000000000,0.000000000,0.000000,-0.000002,-0.000001,0.0000,0.0000,0.0000,4062334.2091,-253555.3522,4894179.1996,-5.0005,7.3969,4.5034,0.000,0.000,0.000,0.88035298143,-0.06233530810,50.0000,2.077
245000,4062329.2087,-253547.9553,4894183.7030,-5.0005,7.3969,4.5034,0.000,0.000,0.000,0.000,0.000,0.000,0.88035409088,-0.06233357084,50.0000,0.785398000,0.000000000,0.000000000,0.000000,-0.000002,-0.000001,0.0000,0.0000,0.0000,4062329.2087,-253547.9553,4894183.7030,-5.0005,7.3969,4.5034,0.000,0.000,0.000,0.88035409088,-0.06233357084,50.0000,2.077
246000,4062324.2082,-253540.5583,4894188.2064,-5.0005,7.3969,4.5034,0.000,0.000,0.000,0.000,0.000,0.000,0.88035520033,-0.06233183357,50.0000,0.785398000,0.000000000,0.000000000,0.000000,-0.000002,-0.000001,0.0000,0.0000,0.0000,4062324.2082,-253540.5583,4894188.2064,-5.0005,7.3969,4.5034,0.000,0.000,0.000,0.88035520033,-0.06233183357,50.0000,2.076
247000,4062319.2077,-253533.1614,4894192.7098,-5.0005,7.3969,4.5034,0.000,0.000,0.000,0.000,0.000,0.000,0.88035630978,-0.06233009631,50.0000,0.785398000,0.000000000,0.000000000,0.000000,-0.000002,-0.000001,0.0000,0.0000,0.0000,4062319.2077,-253533.1614,4894192.7098,-5.0005,7.3969,4.5034,0.000,0.000,0.000,0.88035630978,-0.06233009631,50.0000,2.076
248000,4062314.2072,-253525.7645,4894197.2132,-5.0005,7.3969,4.5034,0.000,0.000,0.000,0.000,0.000,0.000,0.88035741923,-0.06232835904,50.0000,0.785398000,0.000000000,0.000000000,0.000000,-0.000002,-0.000001,0.0000,0.0000,0.0000,4062314.2072,-253525.7645,4894197.2132,-5.0005,7.3969,4.5034,0.000,0.000,0.000,0.88035741923,-0.06232835904,50.0000,2.076
249000,4062309.2066,-253518.3676,4894201.7166,-5.0005,7.3969,4.5034,0.000,0.000,0.000,0.000,0.000,0.000,0.88035852867,-0.06232662177,50.0000,0.785398000,0.000000000,0.000000000,0.000000,-0.000002,-0.000001,0.0000,0.0000,0.0000,4062309.2066,-253518.3676,4894201.7166,-5.0005,7.3969,4.5034,0.000,0.000,0.000,0.88035852867,-0.06232662177,50.0000,2.076
250000,4062304.2061,-253510.9707,4894206.2200,-5.0006,7.3969,4.5034,0.000,0.000,0.000,0.000,0.000,0.000,0.88035963812,-0.06232488449,50.0000,0.785398000,0.000000000,0.000000000,0.000000,-0.000002,-0.000001,0.0000,0.0000,0.0000,4062304.2061,-253510.9707,4894206.2200,-5.0006,7.3969,4.5034,0.000,0.000,0.000,0.88035963812,-0.06232488449,50.0000,2.076
251000,4062299.2055,-253503.5738,4894210.7234,-5.0006,7.3969,4.5034,0.000,0.000,0.000,0.000,0.000,0.000,0.88036074757,-0.06232314722,50.0000,0.785398000,0.000000000,0.000000000,0.000000,-0.000002,-0.000001,0.0000,0.0000,0.0000,4062299.2055,-253503.5738,4894210.7234,-5.0006,7.3969,4.5034,0.000,0.000,0.000,0.88036074757,-0.06232314722,50.0000,2.076
252000,4062294.2049,-253496.1770,4894215.2268,-5.0006,7.3969,4.5034,0.000,0.000,0.000,0.000,0.000,0.000,0.88036185702,-0.06232140994,50.0000,0.785398000,0.000000000,0.000000000,0.000000,-0.000002,-0.000001,0.0000,0.0000,0.0000,4062294.2049,-253496.1770,4894215.2268,-5.0006,7.3969,4.5034,0.000,0.000,0.000,0.88036185702,-0.06232140994,50.0000,2.075
253000,4062289.2043,-253488.7801,4894219.7301,-5.0006,7.3969,4.5034,0.000,0.000,0.000,0.000,0.000,0.000,0.88036296647,-0.06231967266,50.0000,0.785398000,0.000000000,0.000000000,0.000000,-0.000002,-0.000001,0.0000,0.0000,0.0000,4062289.2043,-253488.7801,4894219.7301,-5.0006,7.3969,4.5034,0.000,0.000,0.000,0.88036296647,-0.06231967266,50.0000,2.075
254000,4062284.2037,-253481.3832,4894224.2335,-5.0006,7.3969,4.5034,0.000,0.000,0.000,0.000,0.000,0.000,0.88036407592,-0.06231793538,50.0000,0.785398000,0.000000000,0.000000000,0.000000,-0.000002,-0.000001,0.0000,0.0000,0.0000,4062284.2037,-253481.3832,4894224.2335,-5.0006,7.3969,4.5034,0.000,0.000,0.000,0.88036407592,-0.06231793538,50.0000,2.075
255000,4062279.2030,-253473.9864,4894228.7368,-5.0007,7.3968,4.5033,0.000,0.000,0.000,0.000,0.000,0.000,0.88036518537,-0.06231619809,50.0000,0.785398000,0.000000000,0.000000000,0.000000,-0.000002,-0.000001,0.0000,0.0000,0.0000,4062279.2030,-253473.9864,4894228.7368,-5.0007,7.3968,4.5033,0.000,0.000,0.000,0.88036518537,-0.06231619809,50.0000,2.075
256000,4062274.2024,-253466.5896,4894233.2402,-5.0007,7.3968,4.5033,0.000,0.000,0.000,0.000,0.000,0.000,0.88036629482,-0.06231446080,50.0000,0.785398000,0.000000000,0.000000000,0.000000,-0.000002,-0.000001,0.0000,0.0000,0.0000,4062274.2024,-253466.5896,4894233.2402,-5.0007,7.3968,4.5033,0.000,0.000,0.000,0.88036629482,-0.06231446080,50.0000,2.075
257000,4062269.2017,-253459.1927,4894237.7435,-5.0007,7.3968,4.5033,0.000,0.000,0.000,0.000,0.000,0.000,0.88036740427,-0.06231272351,50.0000,0.785398000,0.000000000,0.000000000,0.000000,-0.000002,-0.000001,0.0000,0.0000,0.0000,4062269.2017,-253459.1927,4894237.7435,-5.0007,7.3968,4.5033,0.000,0.000,0.000,0.88036740427,-0.06231272351,50.0000,2.075
258000,4062264.2010,-253451.7959,4894242.2469,-5.0007,7.3968,4.5033,0.000,0.000,0.000,0.000,0.000,0.000,0.88036851372,-0.06231098622,50.0000,0.785398000,0.000000000,0.000000000,0.000000,-0.000002,-0.000001,0.0000,0.0000,0.0000,4062264.2010,-253451.7959,4894242.2469,-5.0007,7.3968,4.5033,0.000,0.000,0.000,0.88036851372,-0.06231098622,50.0000,2.074
259000,4062259.2003,-253444.3991,4894246.7502,-5.0007,7.3968,4.5033,0.000,0.000,0.000,0.000,0.000,0.000,0.88036962317,-0.06230924893,50.0000,0.785398000,0.000000000,0.000000000,0.000000,-0.000002,-0.000001,0.0000,0.0000,0.0000,4062259.2003,-253444.3991,4894246.7502,-5.0007,7.3968,4.5033,0.000,0.000,0.000,0.88036962317,-0.06230924893,50.0000,2.074
260000,4062254.1995,-253437.0023,4894251.2535,-5.0007,7.3968,4.5033,0.000,0.000,0.000,0.000,0.000,0.000,0.88037073262,-0.06230751163,50.0000,0.785398000,0.000000000,0.000000000,0.000000,-0.000002,-0.000001,0.0000,0.0000,0.0000,4062254.1995,-253437.0023,4894251.2535,-5.0007,7.3968,4.5033,0.000,0.000,0.000,0.88037073262,-0.06230751163,50.0000,2.074
261000,4062249.1988,-253429.6055,4894255.7568,-5.0008,7.3968,4.5033,0.000,0.000,0.000,0.000,0.000,0.000,0.88037184207,-0.06230577433,50.0000,0.785398000,0.000000000,0.000000000,0.000000,-0.000002,-0.000001,0.0000,0.0000,0.0000,4062249.1988,-253429.6055,4894255.7568,-5.0008,7.3968,4.5033,0.000,0.000,0.000,0.88037184207,-0.06230577433,50.0000,2.074
262000,4062244.1980,-253422.2087,4894260.2601,-5.0008,7.3968,4.5033,0.000,0.000,0.000,0.000,0.000,0.000,0.88037295152,-0.06230403703,50.0000,0.785398000,0.000000000,0.000000000,0.000000,-0.000002,-0.000001,0.0000,0.0000,0.0000,4062244.1980,-253422.2087,4894260.2601,-5.0008,7.3968,4.5033,0.000,0.000,0.000,0.88037295152,-0.06230403703,50.0000,2.074
263000,4062239.1972,-253414.8119,4894264.7634,-5.0008,7.3968,4.5033,0.000,0.000,0.000,0.000,0.000,0.000,0.88037406097,-0.06230229973,50.0000,0.785398000,0.000000000,0.000000000,0.000000,-0.000002,-0.000001,0.0000,0.0000,0.0000,4062239.1972,-253414.8119,4894264.7634,-5.0008,7.3968,4.5033,0.000,0.000,0.000,0.88037406097,-0.06230229973,50.0000,2.074
264000,4062234.1964,-253407.4151,4894269.2667,-5.0008,7.3968,4.5033,0.000,0.000,0.000,0.000,0.000,0.000,0.88037517042,-0.06230056242,50.0000,0.785398000,0.000000000,0.000000000,0.000000,-0.000002,-0.000001,0.0000,0.0000,0.0000,4062234.1964,-253407.4151,4894269.2667,-5.0008,7.3968,4.5033,0.000,0.000,0.000,0.88037517042,-0.06230056242,50.0000,2.073
265000,4062229.1956,-253400.0184,4894273.7700,-5.0008,7.3968,4.5033,0.000,0.000,0.000,0.000,0.000,0.000,0.88037627987,-0.06229882511,50.0000,0.785398000,0.000000000,0.000000000,0.000000,-0.000002,-0.000001,0.0000,0.0000,0.0000,4062229.1956,-253400.0184,4894273.7700,-5.0008,7.3968,4.5033,0.000,0.000,0.000,0.88037627987,-0.06229882511,50.0000,2.073
266000,4062224.1947,-253392.6216,4894278.2733,-5.0009,7.3968,4.5033,0.000,0.000,0.000,0.000,0.000,0.000,0.88037738932,-0.06229708780,50.0000,0.785398000,0.000000000,0.000000000,0.000000,-0.000002,-0.000001,0.0000,0.0000,0.0000,4062224.1947,-253392.6216,4894278.2733,-5.0009,7.3968,4.5033,0.000,0.000,0.000,0.88037738932,-0.06229708780,50.0000,2.073
267000,4062219.1939,-253385.2249,4894282.7766,-5.0009,7.3967,4.5033,0.000,0.000,0.000,0.000,0.000,0.000,0.88037849877,-0.06229535049,50.0000,0.785398000,0.000000000,0.000000000,0.000000,-0.000002,-0.000001,0.0000,0.0000,0.0000,4062219.1939,-253385.2249,4894282.7766,-5.0009,7.3967,4.5033,0.000,0.000,0.000,0.88037849877,-0.06229535049,50.0000,2.073
268000,4062214.1930,-253377.8281,4894287.2799,-5.0009,7.3967,4.5033,0.000,0.000,0.000,0.000,0.000,0.000,0.88037960822,-0.06229361317,50.0000,0.785398000,0.000000000,0.000000000,0.000000,-0.000002,-0.000001,0.0000,0.0000,0.0000,4062214.1930,-253377.8281,4894287.2799,-5.0009,7.3967,4.5033,0.000,0.000,0.000,0.88037960822,-0.06229361317,50.0000,2.073
269000,4062209.1921,-253370.4314,4894291.7831,-5.0009,7.3967,4.5033,0.000,0.000,0.000,0.000,0.000,0.000,0.88038071767,-0.06229187586,50.0000,0.785398000,0.000000000,0.000000000,0.000000,-0.000002,-0.000001,0.0000,0.0000,0.0000,4062209.1921,-253370.4314,4894291.7831,-5.0009,7.3967,4.5033,0.000,0.000,0.000,0.88038071767,-0.06229187586,50.0000,2.073
270000,4062204.1912,-253363.0347,4894296.2864,-5.0009,7.3967,4.5033,0.000,0.000,0.000,0.000,0.000,0.000,0.88038182712,-0.06229013854,50.0000,0.785398000,0.000000000,0.000000000,0.000000,-0.000002,-0.000001,0.0000,0.0000,0.0000,4062204.1912,-253363.0347,4894296.2864,-5.0009,7.3967,4.5033,0.000,0.000,0.000,0.88038182712,-0.06229013854,50.0000,2.072
271000,4062199.1903,-253355.6380,4894300.7896,-5.0009,7.3967,4.5033,0.000,0.000,0.000,0.000,0.000,0.000,0.88038293657,-0.06228840122,50.0000,0.785398000,0.000000000,0.000000000,0.000000,-0.000002,-0.000001,0.0000,0.0000,0.0000,4062199.1903,-253355.6380,4894300.7896,-5.0009,7.3967,4.5033,0.000,0.000,0.000,0.88038293657,-0.06228840122,50.0000,2.072
272000,4062194.1893,-253348.2413,4894305.2929,-5.0010,7.3967,4.5032,0.000,0.000,0.000,0.000,0.000,0.000,0.88038404602,-0.06228666389,50.0000,0.785398000,0.000000000,0.000000000,0.000000,-0.000002,-0.000001,0.0000,0.0000,0.0000,4062194.1893,-253348.2413,4894305.2929,-5.0010,7.3967,4.5032,0.000,0.000,0.000,0.88038404602,-0.06228666389,50.0000,2.072
273000,4062189.1884,-253340.8446,4894309.7961,-5.0010,7.3967,4.5032,0.000,0.000,0.000,0.000,0.000,0.000,0.88038515546,-0.06228492656,50.0000,0.785398000,0.000000000,0.000000000,0.000000,-0.000002,-0.000001,0.0000,0.0000,0.0000,4062189.1884,-253340.8446,4894309.7961,-5.0010,7.3967,4.5032,0.000,0.000,0.000,0.88038515546,-0.06228492656,50.0000,2.072
274000,4062184.1874,-253333.4479,4894314.2994,-5.0010,7.3967,4.5032,0.000,0.000,0.000,0.000,0.000,0.000,0.88038626491,-0.06228318923,50.0000,0.785398000,0.000000000,0.000000000,0.000000,-0.000002,-0.000001,0.0000,0.0000,0.0000,4062184.1874,-253333.4479,4894314.2994,-5.0010,7.3967,4.5032,0.000,0.000,0.000,0.88038626491,-0.06228318923,50.0000,2.072
275000,4062179.1864,-253326.0512,4894318.8026,-5.0010,7.3967,4.5032,0.000,0.000,0.000,0.000,0.000,0.000,0.88038737436,-0.06228145190,50.0000,0.785398000,0.000000000,0.000000000,0.000000,-0.000002,-0.000001,0.0000,0.0000,0.0000,4062179.1864,-253326.0512,4894318.8026,-5.0010,7.3967,4.5032,0.000,0.000,0.000,0.88038737436,-0.06228145190,50.0000,2.072
276000,4062174.1853,-253318.6545,4894323.3058,-5.0010,7.3967,4.5032,0.000,0.000,0.000,0.000,0.000,0.000,0.88038848381,-0.06227971457,50.0000,0.785398000,0.000000000,0.000000000,0.000000,-0.000002,-0.000001,0.0000,0.0000,0.0000,4062174.1853,-253318.6545,4894323.3058,-5.0010,7.3967,4.5032,0.000,0.000,0.000,0.88038848381,-0.06227971457,50.0000,2.071
277000,4062169.1843,-253311.2578,4894327.8091,-5.0010,7.3967,4.5032,0.000,0.000,0.000,0.000,0.000,0.000,0.88038959326,-0.06227797723,50.0000,0.785398000,0.000000000,0.000000000,0.000000,-0.000002,-0.000001,0.0000,0.0000,0.0000,4062169.1843,-253311.2578,4894327.8091,-5.0010,7.3967,4.5032,0.000,0.000,0.000,0.88038959326,-0.06227797723,50.0000,2.071
278000,4062164.1833,-253303.8612,4894332.3123,-5.0011,7.3967,4.5032,0.000,0.000,0.000,0.000,0.000,0.000,0.88039070271,-0.06227623989,50.0000,0.785398000,0.000000000,0.000000000,0.000000,-0.000002,-0.000001,0.0000,0.0000,0.0000,4062164.1833,-253303.8612,4894332.3123,-5.0011,7.3967,4.5032,0.000,0.000,0.000,0.88039070271,-0.06227623989,50.0000,2.071
279000,4062159.1822,-253296.4645,4894336.8155,-5.0011,7.3966,4.5032,0.000,0.000,0.000,0.000,0.000,0.000,0.88039181216,-0.06227450255,50.0000,0.785398000,0.000000000,0.000000000,0.000000,-0.000002,-0.000001,0.0000,0.0000,0.0000,4062159.1822,-253296.4645,4894336.8155,-5.0011,7.3966,4.5032,0.000,0.000,0.000,0.88039181216,-0.06227450255,50.0000,2.071
280000,4062154.1811,-253289.0679,4894341.3187,-5.0011,7.3966,4.5032,0.000,0.000,0.000,0.000,0.000,0.000,0.88039292161,-0.06227276521,50.0000,0.785398000,0.000000000,0.000000000,0.000000,-0.000002,-0.000001,0.0000,0.0000,0.0000,4062154.1811,-253289.0679,4894341.3187,-5.0011,7.3966,4.5032,0.000,0.000,0.000,0.88039292161,-0.06227276521,50.0000,2.071
281000,4062149.1800,-253281.6713,4894345.8219,-5.0011,7.3966,4.5032,0.000,0.000,0.000,0.000,0.000,0.000,0.88039403106,-0.06227102786,50.0000,0.785398000,0.000000000,0.000000000,0.000000,-0.000002,-0.000001,0.0000,0.0000,0.0000,4062149.1800,-253281.6713,4894345.8219,-5.0011,7.3966,4.5032,0.000,0.000,0.000,0.88039403106,-0.06227102786,50.0000,2.071
282000,4062144.1789,-253274.2747,4894350.3251,-5.0011,7.3966,4.5032,0.000,0.000,0.000,0.000,0.000,0.000,0.88039514051,-0.06226929052,50.0000,0.785398000,0.000000000,0.000000000,0.000000,-0.000002,-0.000001,0.0000,0.0000,0.0000,4062144.1789,-253274.2747,4894350.3251,-5.0011,7.3966,4.5032,0.000,0.000,0.000,0.88039514051,-0.06226929052,50.0000,2.070
283000,4062139.1777,-253266.8780,4894354.8282,-5.0012,7.3966,4.5032,0.000,0.000,0.000,0.000,0.000,0.000,0.88039624996,-0.06226755317,50.0000,0.785398000,0.000000000,0.000000000,0.000000,-0.000002,-0.000001,0.0000,0.0000,0.0000,4062139.1777,-253266.8780,4894354.8282,-5.0012,7.3966,4.5032,0.000,0.000,0.000,0.88039624996,-0.06226755317,50.0000,2.070
284000,4062134.1765,-253259.4814,4894359.3314,-5.0012,7.3966,4.5032,0.000,0.000,0.000,0.000,0.000,0.000,0.88039735941,-0.06226581581,50.0000,0.785398000,0.000000000,0.000000000,0.000000,-0.000002,-0.000001,0.0000,0.0000,0.0000,4062134.1765,-253259.4814,4894359.3314,-5.0012,7.3966,4.5032,0.000,0.000,0.000,0.88039735941,-0.06226581581,50.0000,2.070
285000,4062129.1754,-253252.0848,4894363.8346,-5.0012,7.3966,4.5032,0.000,0.000,0.000,0.000,0.000,0.000,0.88039846886,-0.06226407846,50.0000,0.785398000,0.000000000,0.000000000,0.000000,-0.000002,-0.000001,0.0000,0.0000,0.0000,4062129.1754,-253252.0848,4894363.8346,-5.0012,7.3966,4.5032,0.000,0.000,0.000,0.88039846886,-0.06226407846,50.0000,2.070
286000,4062124.1742,-253244.6882,4894368.3378,-5.0012,7.3966,4.5032,0.000,0.000,0.000,0.000,0.000,0.000,0.88039957831,-0.06226234110,50.0000,0.785398000,0.000000000,0.000000000,0.000000,-0.000002,-0.000001,0.0000,0.0000,0.0000,4062124.1742,-253244.6882,4894368.3378,-5.0012,7.3966,4.5032,0.000,0.000,0.000,0.88039957831,-0.06226234110,50.0000,2.070
287000,4062119.1730,-253237.2917,4894372.8409,-5.0012,7.3966,4.5032,0.000,0.000,0.000,0.000,0.000,0.000,0.88040068776,-0.06226060374,50.0000,0.785398000,0.000000000,0.000000000,0.000000,-0.000002,-0.000001,0.0000,0.0000,0.0000,4062119.1730,-253237.2917,4894372.8409,-5.0012,7.3966,4.5032,0.000,0.000,0.000,0.88040068776,-0.06226060374,50.0000,2.070
288000,4062114.1717,-253229.8951,4894377.3441,-5.0012,7.3966,4.5031,0.000,0.000,0.000,0.000,0.000,0.000,0.88040179720,-0.06225886638,50.0000,0.785398000,0.000000000,0.000000000,0.000000,-0.000002,-0.000001,0.0000,0.0000,0.0000,4062114.1717,-253229.8951,4894377.3441,-5.0012,7.3966,4.5031,0.000,0.000,0.000,0.88040179720,-0.06225886638,50.0000,2.069
289000,4062109.1705,-253222.4985,4894381.8472,-5.0013,7.3966,4.5031,0.000,0.000,0.000,0.000,0.000,0.000,0.88040290665,-0.06225712902,50.0000,0.785398000,0.000000000,0.000000000,0.000000,-0.000002,-0.000001,0.0000,0.0000,0.0000,4062109.1705,-253222.4985,4894381.8472,-5.0013,7.3966,4.5031,0.000,0.000,0.000,0.88040290665,-0.06225712902,50.0000,2.069
290000,4062104.1692,-253215.1020,4894386.3503,-5.0013,7.3966,4.5031,0.000,0.000,0.000,0.000,0.000,0.000,0.88040401610,-0.06225539165,50.0000,0.785398000,0.000000000,0.000000000,0.000000,-0.000002,-0.000001,0.0000,0.0000,0.0000,4062104.1692,-253215.1020,4894386.3503,-5.0013,7.3966,4.5031,0.000,0.000,0.000,0.88040401610,-0.06225539165,50.0000,2.069
291000,4062099.1679,-253207.7054,4894390.8535,-5.0013,7.3965,4.5031,0.000,0.000,0.000,0.000,0.000,0.000,0.88040512555,-0.06225365428,50.0000,0.785398000,0.000000000,0.000000000,0.000000,-0.000002,-0.000001,0.0000,0.0000,0.0000,4062099.1679,-253207.7054,4894390.8535,-5.0013,7.3965,4.5031,0.000,0.000,0.000,0.88040512555,-0.06225365428,50.0000,2.069
292000,4062094.1666,-253200.3089,4894395.3566,-5.0013,7.3965,4.5031,0.000,0.000,0.000,0.000,0.000,0.000,0.88040623500,-0.06225191691,50.0000,0.785398000,0.000000000,0.000000000,0.000000,-0.000002,-0.000001,0.0000,0.0000,0.0000,4062094.1666,-253200.3089,4894395.3566,-5.0013,7.3965,4.5031,0.000,0.000,0.000,0.88040623500,-0.06225191691,50.0000,2.069
293000,4062089.1653,-253192.9124,4894399.8597,-5.0013,7.3965,4.5031,0.000,0.000,0.000,0.000,0.000,0.000,0.88040734445,-0.06225017954,50.0000,0.785398000,0.000000000,0.000000000,0.000000,-0.000002,-0.000001,0.0000,0.0000,0.0000,4062089.1653,-253192.9124,4894399.8597,-5.0013,7.3965,4.5031,0.000,0.000,0.000,0.88040734445,-0.06225017954,50.0000,2.069
294000,4062084.1639,-253185.5158,4894404.3629,-5.0013,7.3965,4.5031,0.000,0.000,0.000,0.000,0.000,0.000,0.88040845390,-0.06224844216,50.0000,0.785398000,0.000000000,0.000000000,0.000000,-0.000002,-0.000001,0.0000,0.0000,0.0000,4062084.1639,-253185.5158,4894404.3629,-5.0013,7.3965,4.5031,0.000,0.000,0.000,0.88040845390,-0.06224844216,50.0000,2.068
295000,4062079.1626,-253178.1193,4894408.8660,-5.0014,7.3965,4.5031,0.000,0.000,0.000,0.000,0.000,0.000,0.88040956335,-0.06224670478,50.0000,0.785398000,0.000000000,0.000000000,0.000000,-0.000002,-0.000001,0.0000,0.0000,0.0000,4062079.1626,-253178.1193,4894408.8660,-5.0014,7.3965,4.5031,0.000,0.000,0.000,0.88040956335,-0.06224670478,50.0000,2.068
296000,4062074.1612,-253170.7228,4894413.3691,-5.0014,7.3965,4.5031,0.000,0.000,0.000,0.000,0.000,0.000,0.88041067280,-0.06224496740,50.0000,0.785398000,0.000000000,0.000000000,0.000000,-0.000002,-0.000001,0.0000,0.0000,0.0000,4062074.1612,-253170.7228,4894413.3691,-5.0014,7.3965,4.5031,0.000,0.000,0.000,0.88041067280,-0.06224496740,50.0000,2.068
297000,4062069.1598,-253163.3263,4894417.8722,-5.0014,7.3965,4.5031,0.000,0.000,0.000,0.000,0.000,0.000,0.88041178225,-0.06224323002,50.0000,0.785398000,0.000000000,0.000000000,0.000000,-0.000002,-0.000001,0.0000,0.0000,0.0000,4062069.1598,-253163.3263,4894417.8722,-5.0014,7.3965,4.5031,0.000,0.000,0.000,0.88041178225,-0.06224323002,50.0000,2.068
298000,4062064.1584,-253155.9298,4894422.3753,-5.0014,7.3965,4.5031,0.000,0.000,0.000,0.000,0.000,0.000,0.88041289170,-0.06224149263,50.0000,0.785398000,0.000000000,0.000000000,0.000000,-0.000002,-0.000001,0.0000,0.0000,0.0000,4062064.1584,-253155.9298,4894422.3753,-5.0014,7.3965,4.5031,0.000,0.000,0.000,0.88041289170,-0.06224149263,50.0000,2.068
299000,4062059.1570,-253148.5334,4894426.8783,-5.0014,7.3965,4.5031,0.000,0.000,0.000,0.000,0.000,0.000,0.88041400115,-0.06223975525,50.0000,0.785398000,0.000000000,0.000000000,0.000000,-0.000002,-0.000001,0.0000,0.0000,0.0000,4062059.1570,-253148.5334,4894426.8783,-5.0014,7.3965,4.5031,0.000,0.000,0.000,0.88041400115,-0.06223975525,50.0000,2.068
300000,4062054.1555,-253141.1369,4894431.3814,-5.0015,7.3965,4.5031,0.000,0.000,0.000,0.000,0.000,0.000,0.88041511059,-0.06223801786,50.0000,0.785398000,0.000000000,0.000000000,0.000000,-0.000002,-0.000001,0.0000,0.0000,0.0000,4062054.1555,-253141.1369,4894431.3814,-5.0015,7.3965,4.5031,0.000,0.000,0.000,0.88041511059,-0.06223801786,50.0000,2.066
301000,4062049.1541,-253133.7404,4894435.8845,-5.0015,7.3965,4.5031,0.000,0.000,0.000,0.000,0.000,0.000,0.88041622004,-0.06223628047,50.0000,0.785398000,0.000000000,0.000000000,0.000000,-0.000002,-0.000001,0.0000,0.0000,0.0000,4062049.1541,-253133.7404,4894435.8845,-5.0015,7.3965,4.5031,0.000,0.000,0.000,0.88041622004,-0.06223628047,50.0000,2.066
302000,4062044.1526,-253126.3440,4894440.3876,-5.0015,7.3965,4.5031,0.000,0.000,0.000,0.000,0.000,0.000,0.88041732949,-0.06223454307,50.0000,0.785398000,0.000000000,0.000000000,0.000000,-0.000002,-0.000001,0.0000,0.0000,0.0000,4062044.1526,-253126.3440,4894440.3876,-5.0015,7.3965,4.5031,0.000,0.000,0.000,0.88041732949,-0.06223454307,50.0000,2.066
303000,4062039.1511,-253118.9475,4894444.8906,-5.0015,7.3964,4.5031,0.000,0.000,0.000,0.000,0.000,0.000,0.88041843894,-0.06223280567,50.0000,0.785398000,0.000000000,0.000000000,0.000000,-0.000002,-0.000001,0.0000,0.0000,0.0000,4062039.1511,-253118.9475,4894444.8906,-5.0015,7.3964,4.5031,0.000,0.000,0.000,0.88041843894,-0.06223280567,50.0000,2.066
304000,4062034.1496,-253111.5511,4894449.3937,-5.0015,7.3964,4.5031,0.000,0.000,0.000,0.000,0.000,0.000,0.88041954839,-0.06223106828,50.0000,0.785398000,0.000000000,0.000000000,0.000000,-0.000002,-0.000001,0.0000,0.0000,0.0000,4062034.1496,-253111.5511,4894449.3937,-5.0015,7.3964,4.5031,0.000,0.000,0.000,0.88041954839,-0.06223106828,50.0000,2.066
305000,4062029.1480,-253104.1547,4894453.8967,-5.0015,7.3964,4.5030,0.000,0.000,0.000,0.000,0.000,0.000,0.88042065784,-0.06222933087,50.0000,0.785398000,0.000000000,0.000000000,0.000000,-0.000002,-0.000001,0.0000,0.0000,0.0000,4062029.1480,-253104.1547,4894453.8967,-5.0015,7.3964,4.5030,0.000,0.000,0.000,0.88042065784,-0.06222933087,50.0000,2.066
306000,4062024.1465,-253096.7582,4894458.3998,-5.0016,7.3964,4.5030,0.000,0.000,0.000,0.000,0.000,0.000,0.88042176729,-0.06222759347,50.0000,0.785398000,0.000000000,0.000000000,0.000000,-0.000002,-0.000001,0.0000,0.0000,0.0000,4062024.1465,-253096.7582,4894458.3998,-5.0016,7.3964,4.5030,0.000,0.000,0.000,0.88042176729,-0.06222759347,50.0000,2.065
307000,4062019.1449,-253089.3618,4894462.9028,-5.0016,7.3964,4.5030,0.000,0.000,0.000,0.000,0.000,0.000,0.88042287674,-0.06222585606,50.0000,0.785398000,0.000000000,0.000000000,0.000000,-0.000002,-0.000001,0.0000,0.0000,0.0000,4062019.1449,-253089.3618,4894462.9028,-5.0016,7.3964,4.5030,0.000,0.000,0.000,0.88042287674,-0.06222585606,50.0000,2.065
308000,4062014.1433,-253081.9654,4894467.4058,-5.0016,7.3964,4.5030,0.000,0.000,0.000,0.000,0.000,0.000,0.88042398619,-0.06222411866,50.0000,0.785398000,0.000000000,0.000000000,0.000000,-0.000002,-0.000001,0.0000,0.0000,0.0000,4062014.1433,-253081.9654,4894467.4058,-5.0016,7.3964,4.5030,0.000,0.000,0.000,0.88042398619,-0.06222411866,50.0000,2.065
309000,4062009.1417,-253074.5690,4894471.9089,-5.0016,7.3964,4.5030,0.000,0.000,0.000,0.000,0.000,0.000,0.88042509564,-0.06222238125,50.0000,0.785398000,0.000000000,0.000000000,0.000000,-0.000002,-0.000001,0.0000,0.0000,0.0000,4062009.1417,-253074.5690,4894471.9089,-5.0016,7.3964,4.5030,0.000,0.000,0.000,0.88042509564,-0.06222238125,50.0000,2.065
310000,4062004.1401,-253067.1726,4894476.4119,-5.0016,7.3964,4.5030,0.000,0.000,0.000,0.000,0.000,0.000,0.88042620508,-0.06222064383,50.0000,0.785398000,0.000000000,0.000000000,0.000000,-0.000002,-0.000001,0.0000,0.0000,0.0000,4062004.1401,-253067.1726,4894476.4119,-5.0016,7.3964,4.5030,0.000,0.000,0.000,0.88042620508,-0.06222064383,50.0000,2.065
311000,4061999.1384,-253059.7763,4894480.9149,-5.0017,7.3964,4.5030,0.000,0.000,0.000,0.000,0.000,0.000,0.88042731453,-0.06221890642,50.0000,0.785398000,0.000000000,0.000000000,0.000000,-0.000002,-0.000001,0.0000,0.0000,0.0000,4061999.1384,-253059.7763,4894480.9149,-5.0017,7.3964,4.5030,0.000,0.000,0.000,0.88042731453,-0.06221890642,50.0000,2.065
312000,4061994.1368,-253052.3799,4894485.4179,-5.0017,7.3964,4.5030,0.000,0.000,0.000,0.000,0.000,0.000,0.88042842398,-0.06221716900,50.0000,0.785398000,0.000000000,0.000000000,0.000000,-0.000002,-0.000001,0.0000,0.0000,0.0000,4061994.1368,-253052.3799,4894485.4179,-5.0017,7.3964,4.5030,0.000,0.000,0.000,0.88042842398,-0.06221716900,50.0000,2.064
313000,4061989.1351,-253044.9835,4894489.9209,-5.0017,7.3964,4.5030,0.000,0.000,0.000,0.000,0.000,0.000,0.88042953343,-0.06221543158,50.0000,0.785398000,0.000000000,0.000000000,0.000000,-0.000002,-0.000001,0.0000,0.0000,0.0000,4061989.1351,-253044.9835,4894489.9209,-5.0017,7.3964,4.5030,0.000,0.000,0.000,0.88042953343,-0.06221543158,50.0000,2.064
314000,4061984.1334,-253037.5872,4894494.4239,-5.0017,7.3963,4.5030,0.000,0.000,0.000,0.000,0.000,0.000,0.88043064288,-0.06221369416,50.0000,0.785398000,0.000000000,0.000000000,0.000000,-0.000002,-0.000001,0.0000,0.0000,0.0000,4061984.1334,-253037.5872,4894494.4239,-5.0017,7.3963,4.5030,0.000,0.000,0.000,0.88043064288,-0.06221369416,50.0000,2.064
315000,4061979.1317,-253030.1908,4894498.9269,-5.0017,7.3963,4.5030,0.000,0.000,0.000,0.000,0.000,0.000,0.88043175233,-0.06221195673,50.0000,0.785398000,0.000000000,0.000000000,0.000000,-0.000002,-0.000001,0.0000,0.0000,0.0000,4061979.1317,-253030.1908,4894498.9269,-5.0017,7.3963,4.5030,0.000,0.000,0.000,0.88043175233,-0.06221195673,50.0000,2.064
316000,4061974.1299,-253022.7945,4894503.4299,-5.0017,7.3963,4.5030,0.000,0.000,0.000,0.000,0.000,0.000,0.88043286178,-0.06221021931,50.0000,0.785398000,0.000000000,0.000000000,0.000000,-0.000002,-0.000001,0.0000,0.0000,0.0000,4061974.1299,-253022.7945,4894503.4299,-5.0017,7.3963,4.5030,0.000,0.000,0.000,0.88043286178,-0.06221021931,50.0000,2.064
317000,4061969.1282,-253015.3982,4894507.9329,-5.0018,7.3963,4.5030,0.000,0.000,0.000,0.000,0.000,0.000,0.88043397123,-0.06220848188,50.0000,0.785398000,0.000000000,0.000000000,0.000000,-0.000002,-0.000001,0.0000,0.0000,0.0000,4061969.1282,-253015.3982,4894507.9329,-5.0018,7.3963,4.5030,0.000,0.000,0.000,0.88043397123,-0.06220848188,50.0000,2.064
318000,4061964.1264,-253008.0018,4894512.4358,-5.0018,7.3963,4.5030,0.000,0.000,0.000,0.000,0.000,0.000,0.88043508068,-0.06220674444,50.0000,0.785398000,0.000000000,0.000000000,0.000000,-0.000002,-0.000001,0.0000,0.0000,0.0000,4061964.1264,-253008.0018,4894512.4358,-5.0018,7.3963,4.5030,0.000,0.000,0.000,0.88043508068,-0.06220674444,50.0000,2.063
319000,4061959.1246,-253000.6055,4894516.9388,-5.0018,7.3963,4.5030,0.000,0.000,0.000,0.000,0.000,0.000,0.88043619013,-0.06220500701,50.0000,0.785398000,0.000000000,0.000000000,0.000000,-0.000002,-0.000001,0.0000,0.0000,0.0000,4061959.1246,-253000.6055,4894516.9388,-5.0018,7.3963,4.5030,0.000,0.000,0.000,0.88043619013,-0.06220500701,50.0000,2.063
320000,4061954.1228,-252993.2092,4894521.4418,-5.0018,7.3963,4.5030,0.000,0.000,0.000,0.000,0.000,0.000,0.88043729957,-0.06220326957,50.0000,0.785398000,0.000000000,0.000000000,0.000000,-0.000002,-0.000001,0.0000,0.0000,0.0000,4061954.1228,-252993.2092,4894521.4418,-5.0018,7.3963,4.5030,0.000,0.000,0.000,0.88043729957,-0.06220326957,50.0000,2.063
321000,4061949.1210,-252985.8129,4894525.9447,-5.0018,7.3963,4.5029,0.000,0.000,0.000,0.000,0.000,0.000,0.88043840902,-0.06220153214,50.0000,0.785398000,0.000000000,0.000000000,0.000000,-0.000002,-0.000001,0.0000,0.0000,0.0000,4061949.1210,-252985.8129,4894525.9447,-5.0018,7.3963,4.5029,0.000,0.000,0.000,0.88043840902,-0.06220153214,50.0000,2.063
322000,4061944.1192,-252978.4166,4894530.4477,-5.0018,7.3963,4.5029,0.000,0.000,0.000,0.000,0.000,0.000,0.88043951847,-0.06219979469,50.0000,0.785398000,0.000000000,0.000000000,0.000000,-0.000002,-0.000001,0.0000,0.0000,0.0000,4061944.1192,-252978.4166,4894530.4477,-5.0018,7.3963,4.5029,0.000,0.000,0.000,0.88043951847,-0.06219979469,50.0000,2.063
323000,4061939.1173,-252971.0204,4894534.9506,-5.0019,7.3963,4.5029,0.000,0.000,0.000,0.000,0.000,0.000,0.88044062792,-0.06219805725,50.0000,0.785398000,0.000000000,0.000000000,0.000000,-0.000002,-0.000001,0.0000,0.0000,0.0000,4061939.1173,-252971.0204,4894534.9506,-5.0019,7.3963,4.5029,0.000,0.000,0.000,0.88044062792,-0.06219805725,50.0000,2.063
324000,4061934.1154,-252963.6241,4894539.4535,-5.0019,7.3963,4.5029,0.000,0.000,0.000,0.000,0.000,0.000,0.88044173737,-0.06219631981,50.0000,0.785398000,0.000000000,0.000000000,0.000000,-0.000002,-0.000001,0.0000,0.0000,0.0000,4061934.1154,-252963.6241,4894539.4535,-5.0019,7.3963,4.5029,0.000,0.000,0.000,0.88044173737,-0.06219631981,50.0000,2.062
325000,4061929.1135,-252956.2278,4894543.9565,-5.0019,7.3963,4.5029,0.000,0.000,0.000,0.000,0.000,0.000,0.88044284682,-0.06219458236,50.0000,0.785398000,0.000000000,0.000000000,0.000000,-0.000002,-0.000001,0.0000,0.0000,0.0000,4061929.1135,-252956.2278,4894543.9565,-5.0019,7.3963,4.5029,0.000,0.000,0.000,0.88044284682,-0.06219458236,50.0000,2.062
326000,4061924.1116,-252948.8316,4894548.4594,-5.0019,7.3962,4.5029,0.000,0.000,0.000,0.000,0.000,0.000,0.88044395627,-0.06219284491,50.0000,0.785398000,0.000000000,0.000000000,0.000000,-0.000002,-0.000001,0.0000,0.0000,0.0000,4061924.1116,-252948.8316,4894548.4594,-5.0019,7.3962,4.5029,0.000,0.000,0.000,0.88044395627,-0.06219284491,50.0000,2.062
327000,4061919.1097,-252941.4353,4894552.9623,-5.0019,7.3962,4.5029,0.000,0.000,0.000,0.000,0.000,0.000,0.88044506572,-0.06219110745,50.0000,0.785398000,0.000000000,0.000000000,0.000000,-0.000002,-0.000001,0.0000,0.0000,0.0000,4061919.1097,-252941.4353,4894552.9623,-5.0019,7.3962,4.5029,0.000,0.000,0.000,0.88044506572,-0.06219110745,50.0000,2.062
328000,4061914.1077,-252934.0391,4894557.4652,-5.0020,7.3962,4.5029,0.000,0.000,0.000,0.000,0.000,0.000,0.88044617516,-0.06218937000,50.0000,0.785398000,0.000000000,0.000000000,0.000000,-0.000002,-0.000001,0.0000,0.0000,0.0000,4061914.1077,-252934.0391,4894557.4652,-5.0020,7.3962,4.5029,0.000,0.000,0.000,0.88044617516,-0.06218937000,50.0000,2.062
329000,4061909.1058,-252926.6429,4894561.9681,-5.0020,7.3962,4.5029,0.000,0.000,0.000,0.000,0.000,0.000,0.88044728461,-0.06218763254,50.0000,0.785398000,0.000000000,0.000000000,0.000000,-0.000002,-0.000001,0.0000,0.0000,0.0000,4061909.1058,-252926.6429,4894561.9681,-5.0020,7.3962,4.5029,0.000,0.000,0.000,0.88044728461,-0.06218763254,50.0000,2.062
330000,4061904.1038,-252919.2466,4894566.4710,-5.0020,7.3962,4.5029,0.000,0.000,0.000,0.000,0.000,0.000,0.88044839406,-0.06218589508,50.0000,0.785398000,0.000000000,0.000000000,0.000000,-0.000002,-0.000001,0.0000,0.0000,0.0000,4061904.1038,-252919.2466,4894566.4710,-5.0020,7.3962,4.5029,0.000,0.000,0.000,0.88044839406,-0.06218589508,50.0000,2.061
331000,4061899.1018,-252911.8504,4894570.9739,-5.0020,7.3962,4.5029,0.000,0.000,0.000,0.000,0.000,0.000,0.88044950351,-0.06218415762,50.0000,0.785398000,0.000000000,0.000000000,0.000000,-0.000002,-0.000001,0.0000,0.0000,0.0000,4061899.1018,-252911.8504,4894570.9739,-5.0020,7.3962,4.5029,0.000,0.000,0.000,0.88044950351,-0.06218415762,50.0000,2.061
332000,4061894.0998,-252904.4542,4894575.4768,-5.0020,7.3962,4.5029,0.000,0.000,0.000,0.000,0.000,0.000,0.88045061296,-0.06218242016,50.0000,0.785398000,0.000000000,0.000000000,0.000000,-0.000002,-0.000001,0.0000,0.0000,0.0000,4061894.0998,-252904.4542,4894575.4768,-5.0020,7.3962,4.5029,0.000,0.000,0.000,0.88045061296,-0.06218242016,50.0000,2.061
333000,4061889.0977,-252897.0580,4894579.9797,-5.0020,7.3962,4.5029,0.000,0.000,0.000,0.000,0.000,0.000,0.88045172241,-0.06218068269,50.0000,0.785398000,0.000000000,0.000000000,0.000000,-0.000002,-0.000001,0.0000,0.0000,0.0000,4061889.0977,-252897.0580,4894579.9797,-5.0020,7.3962,4.5029,0.000,0.000,0.000,0.88045172241,-0.06218068269,50.0000,2.061
334000,4061884.0957,-252889.6618,4894584.4825,-5.0021,7.3962,4.5029,0.000,0.000,0.000,0.000,0.000,0.000,0.88045283186,-0.06217894522,50.0000,0.785398000,0.000000000,0.000000000,0.000000,-0.000002,-0.000001,0.0000,0.0000,0.0000,4061884.0957,-252889.6618,4894584.4825,-5.0021,7.3962,4.5029,0.000,0.000,0.000,0.88045283186,-0.06217894522,50.0000,2.061
335000,4061879.0936,-252882.2657,4894588.9854,-5.0021,7.3962,4.5029,0.000,0.000,0.000,0.000,0.000,0.000,0.88045394131,-0.06217720775,50.0000,0.785398000,0.000000000,0.000000000,0.000000,-0.000002,-0.000001,0.0000,0.0000,0.0000,4061879.0936,-252882.2657,4894588.9854,-5.0021,7.3962,4.5029,0.000,0.000,0.000,0.88045394131,-0.06217720775,50.0000,2.061
336000,4061874.0915,-252874.8695,4894593.4883,-5.0021,7.3962,4.5029,0.000,0.000,0.000,0.000,0.000,0.000,0.88045505075,-0.06217547028,50.0000,0.785398000,0.000000000,0.000000000,0.000000,-0.000002,-0.000001,0.0000,0.0000,0.0000,4061874.0915,-252874.8695,4894593.4883,-5.0021,7.3962,4.5029,0.000,0.000,0.000,0.88045505075,-0.06217547028,50.0000,2.060
337000,4061869.0894,-252867.4733,4894597.9911,-5.0021,7.3962,4.5029,0.000,0.000,0.000,0.000,0.000,0.000,0.88045616020,-0.06217373280,50.0000,0.785398000,0.000000000,0.000000000,0.000000,-0.000002,-0.000001,0.0000,0.0000,0.0000,4061869.0894,-252867.4733,4894597.9911,-5.0021,7.3962,4.5029,0.000,0.000,0.000,0.88045616020,-0.06217373280,50.0000,2.060
338000,4061864.0873,-252860.0772,4894602.4940,-5.0021,7.3961,4.5028,0.000,0.000,0.000,0.000,0.000,0.000,0.88045726965,-0.06217199532,50.0000,0.785398000,0.000000000,0.000000000,0.000000,-0.000002,-0.000001,0.0000,0.0000,0.0000,4061864.0873,-252860.0772,4894602.4940,-5.0021,7.3961,4.5028,0.000,0.000,0.000,0.88045726965,-0.06217199532,50.0000,2.060
339000,4061859.0851,-252852.6810,4894606.9968,-5.0022,7.3961,4.5028,0.000,0.000,0.000,0.000,0.000,0.000,0.88045837910,-0.06217025784,50.0000,0.785398000,0.000000000,0.000000000,0.000000,-0.000002,-0.000001,0.0000,0.0000,0.0000,4061859.0851,-252852.6810,4894606.9968,-5.0022,7.3961,4.5028,0.000,0.000,0.000,0.88045837910,-0.06217025784,50.0000,2.060
340000,4061854.0830,-252845.2849,4894611.4997,-5.0022,7.3961,4.5028,0.000,0.000,0.000,0.000,0.000,0.000,0.88045948855,-0.06216852036,50.0000,0.785398000,0.000000000,0.000000000,0.000000,-0.000002,-0.000001,0.0000,0.0000,0.0000,4061854.0830,-252845.2849,4894611.4997,-5.0022,7.3961,4.5028,0.000,0.000,0.000,0.88045948855,-0.06216852036,50.0000,2.060
341000,4061849.0808,-252837.8888,4894616.0025,-5.0022,7.3961,4.5028,0.000,0.000,0.000,0.000,0.000,0.000,0.88046059800,-0.06216678287,50.0000,0.785398000,0.000000000,0.000000000,0.000000,-0.000002,-0.000001,0.0000,0.0000,0.0000,4061849.0808,-252837.8888,4894616.0025,-5.0022,7.3961,4.5028,0.000,0.000,0.000,0.88046059800,-0.06216678287,50.0000,2.060
